TimeInterval,Activity,Accel.x,Accel.y,Accel.z,RotRate.x,RotRate.y,RotRate.z,Gravity.x,Gravity.y,Gravity.z,Attitude.pitch,Attitude.roll,Attitude.yaw,AccumulatedRateGravity,PeakRate
0,0,-0.006798543,0.034716681,0.01263243,0.167599827,0.122839935,0.073798917,-0.07526318,0.153530896,-0.985273421,-0.154140548,-0.076240052,0.005435712,-0.048076287,-0.2063395
0,0,-0.006798543,0.034716681,0.01263243,0.167599827,0.122839935,0.073798917,-0.07526318,0.153530896,-0.985273421,-0.154140548,-0.076240052,0.005435712,-0.045278826,-0.2063395
0,0,-0.006798543,0.034716681,0.01263243,0.167599827,0.122839935,0.073798917,-0.07526318,0.153530896,-0.985273421,-0.154140548,-0.076240052,0.005435712,-0.042481366,-0.2063395
0,0,-0.006798543,0.034716681,0.01263243,0.167599827,0.122839935,0.073798917,-0.07526318,0.153530896,-0.985273421,-0.154140548,-0.076240052,0.005435712,-0.039683906,-0.2063395
0,0,-0.006798543,0.034716681,0.01263243,0.167599827,0.122839935,0.073798917,-0.07526318,0.153530896,-0.985273421,-0.154140548,-0.076240052,0.005435712,-0.036886445,-0.2063395
0,0,-0.000196159,0.011068806,0.006106555,0.150956556,0.152863905,0.091492958,-0.068865083,0.15444319,-0.985598743,-0.155063859,-0.069757948,0.009208506,-0.034298899,-0.2063395
0,0,-0.000196159,0.011068806,0.006106555,0.150956556,0.152863905,0.091492958,-0.068865083,0.15444319,-0.985598743,-0.155063859,-0.069757948,0.009208506,-0.031711353,-0.090283071
0,0,-0.000196159,0.011068806,0.006106555,0.150956556,0.152863905,0.091492958,-0.068865083,0.15444319,-0.985598743,-0.155063859,-0.069757948,0.009208506,-0.031985897,-0.090283071
0,0,-0.000196159,0.011068806,0.006106555,0.150956556,0.152863905,0.091492958,-0.068865083,0.15444319,-0.985598743,-0.155063859,-0.069757948,0.009208506,-0.032260441,-0.090283071
0,0,-0.000196159,0.011068806,0.006106555,0.150956556,0.152863905,0.091492958,-0.068865083,0.15444319,-0.985598743,-0.155063859,-0.069757948,0.009208506,-0.032534985,-0.090283071
0,0,-0.000196159,0.011068806,0.006106555,0.150956556,0.152863905,0.091492958,-0.068865083,0.15444319,-0.985598743,-0.155063859,-0.069757948,0.009208506,-0.032809529,-0.090283071
0,0,0.008250117,0.021583185,0.025329053,0.403136581,0.148866758,0.133507788,-0.063608959,0.152519479,-0.986251354,-0.153117075,-0.064406487,0.014296446,-0.034237034,-0.134610255
0,0,0.008250117,0.021583185,0.025329053,0.403136581,0.148866758,0.133507788,-0.063608959,0.152519479,-0.986251354,-0.153117075,-0.064406487,0.014296446,-0.03566454,-0.134610255
0,0,0.008250117,0.021583185,0.025329053,0.403136581,0.148866758,0.133507788,-0.063608959,0.152519479,-0.986251354,-0.153117075,-0.064406487,0.014296446,-0.041769753,-0.134610255
0,0,0.008250117,0.021583185,0.025329053,0.403136581,0.148866758,0.133507788,-0.063608959,0.152519479,-0.986251354,-0.153117075,-0.064406487,0.014296446,-0.047874967,-0.134610255
0,0,0.008250117,0.021583185,0.025329053,0.403136581,0.148866758,0.133507788,-0.063608959,0.152519479,-0.986251354,-0.153117075,-0.064406487,0.014296446,-0.053980181,-0.134610255
0,0,0.008250117,0.021583185,0.025329053,0.403136581,0.148866758,0.133507788,-0.063608959,0.152519479,-0.986251354,-0.153117075,-0.064406487,0.014296446,-0.060085395,-0.134610255
0,0,0.024780139,0.075874954,0.080378532,1.363884449,0.100133397,0.076728344,-0.059722733,0.125769868,-0.990260124,-0.126103822,-0.060237183,0.021171657,-0.063715864,-0.144842162
0,0,0.024780139,0.075874954,0.080378532,1.363884449,0.100133397,0.076728344,-0.059722733,0.125769868,-0.990260124,-0.126103822,-0.060237183,0.021171657,-0.067346333,-0.144842162
0,0,0.024780139,0.075874954,0.080378532,1.363884449,0.100133397,0.076728344,-0.059722733,0.125769868,-0.990260124,-0.126103822,-0.060237183,0.021171657,-0.070976802,-0.144842162
0,0,0.024780139,0.075874954,0.080378532,1.363884449,0.100133397,0.076728344,-0.059722733,0.125769868,-0.990260124,-0.126103822,-0.060237183,0.021171657,-0.074607271,-0.144842162
0,0,0.024780139,0.075874954,0.080378532,1.363884449,0.100133397,0.076728344,-0.059722733,0.125769868,-0.990260124,-0.126103822,-0.060237183,0.021171657,-0.078237739,-0.144842162
0,0,0.024780139,0.075874954,0.080378532,1.363884449,0.100133397,0.076728344,-0.059722733,0.125769868,-0.990260124,-0.126103822,-0.060237183,0.021171657,-0.081868208,-0.144842162
0,0,0.037751861,0.028767399,-0.018197894,2.194121599,0.077986814,0.081398465,-0.054750141,0.047892682,-0.997350872,-0.04791101,-0.054840523,0.02577968,-0.08655336,-0.197576298
0,0,0.037751861,0.028767399,-0.018197894,2.194121599,0.077986814,0.081398465,-0.054750141,0.047892682,-0.997350872,-0.04791101,-0.054840523,0.02577968,-0.091238511,-0.197576298
0,0,0.037751861,0.028767399,-0.018197894,2.194121599,0.077986814,0.081398465,-0.054750141,0.047892682,-0.997350872,-0.04791101,-0.054840523,0.02577968,-0.093384376,-0.197576298
0,0,0.037751861,0.028767399,-0.018197894,2.194121599,0.077986814,0.081398465,-0.054750141,0.047892682,-0.997350872,-0.04791101,-0.054840523,0.02577968,-0.09553024,-0.197576298
0,0,0.037751861,0.028767399,-0.018197894,2.194121599,0.077986814,0.081398465,-0.054750141,0.047892682,-0.997350872,-0.04791101,-0.054840523,0.02577968,-0.097676105,-0.197576298
0,0,0.037751861,0.028767399,-0.018197894,2.194121599,0.077986814,0.081398465,-0.054750141,0.047892682,-0.997350872,-0.04791101,-0.054840523,0.02577968,-0.099821969,-0.197576298
0,0,-0.003285937,0.047535472,0.014479399,2.118330956,0.25499776,0.284088075,-0.048822824,-0.035313308,-0.998183012,0.03532065,-0.048872749,0.039272147,-0.1059363,-0.395999604
0,0,-0.003285937,0.047535472,0.014479399,2.118330956,0.25499776,0.284088075,-0.048822824,-0.035313308,-0.998183012,0.03532065,-0.048872749,0.039272147,-0.112050631,-0.395999604
0,0,-0.003285937,0.047535472,0.014479399,2.118330956,0.25499776,0.284088075,-0.048822824,-0.035313308,-0.998183012,0.03532065,-0.048872749,0.039272147,-0.118739973,-0.395999604
0,0,-0.003285937,0.047535472,0.014479399,2.118330956,0.25499776,0.284088075,-0.048822824,-0.035313308,-0.998183012,0.03532065,-0.048872749,0.039272147,-0.125429315,-0.395999604
0,0,-0.003285937,0.047535472,0.014479399,2.118330956,0.25499776,0.284088075,-0.048822824,-0.035313308,-0.998183012,0.03532065,-0.048872749,0.039272147,-0.132118657,-0.395999604
0,0,-0.003285937,0.047535472,0.014479399,2.118330956,0.25499776,0.284088075,-0.048822824,-0.035313308,-0.998183012,0.03532065,-0.048872749,0.039272147,-0.138807999,-0.395999604
0,0,-0.0192753,0.039169207,-0.015320122,2.405482531,0.433086067,0.667332232,-0.037227988,-0.124054052,-0.99157685,0.124374461,-0.037526604,0.061789503,-0.15367712,-0.80498855
0,0,-0.0192753,0.039169207,-0.015320122,2.405482531,0.433086067,0.667332232,-0.037227988,-0.124054052,-0.99157685,0.124374461,-0.037526604,0.061789503,-0.168546241,-0.80498855
0,0,-0.0192753,0.039169207,-0.015320122,2.405482531,0.433086067,0.667332232,-0.037227988,-0.124054052,-0.99157685,0.124374461,-0.037526604,0.061789503,-0.18339216,-0.80498855
0,0,-0.0192753,0.039169207,-0.015320122,2.405482531,0.433086067,0.667332232,-0.037227988,-0.124054052,-0.99157685,0.124374461,-0.037526604,0.061789503,-0.198238079,-0.80498855
0,0,-0.0192753,0.039169207,-0.015320122,2.405482531,0.433086067,0.667332232,-0.037227988,-0.124054052,-0.99157685,0.124374461,-0.037526604,0.061789503,-0.213083998,-0.80498855
0,0,-0.0192753,0.039169207,-0.015320122,2.405482531,0.433086067,0.667332232,-0.037227988,-0.124054052,-0.99157685,0.124374461,-0.037526604,0.061789503,-0.227929917,-0.80498855
0,0,0.016807709,0.047669277,0.019007623,2.421074152,0.39575994,0.74409169,-0.024101391,-0.220078558,-0.975184381,0.221895,-0.024709673,0.095731551,-0.244097588,-0.871076126
0,0,0.016807709,0.047669277,0.019007623,2.421074152,0.39575994,0.74409169,-0.024101391,-0.220078558,-0.975184381,0.221895,-0.024709673,0.095731551,-0.260265258,-0.871076126
0,0,0.016807709,0.047669277,0.019007623,2.421074152,0.39575994,0.74409169,-0.024101391,-0.220078558,-0.975184381,0.221895,-0.024709673,0.095731551,-0.276545323,-0.871076126
0,0,0.016807709,0.047669277,0.019007623,2.421074152,0.39575994,0.74409169,-0.024101391,-0.220078558,-0.975184381,0.221895,-0.024709673,0.095731551,-0.292825387,-0.871076126
0,0,0.016807709,0.047669277,0.019007623,2.421074152,0.39575994,0.74409169,-0.024101391,-0.220078558,-0.975184381,0.221895,-0.024709673,0.095731551,-0.309105452,-0.871076126
0,0,0.016807709,0.047669277,0.019007623,2.421074152,0.39575994,0.74409169,-0.024101391,-0.220078558,-0.975184381,0.221895,-0.024709673,0.095731551,-0.325385516,-0.871076126
0,0,-0.024528012,0.042238921,0.040054023,1.552608728,0.236578599,0.684028685,-0.020683762,-0.296420097,-0.954833627,0.300942091,-0.021658775,0.132270389,-0.339351539,-0.871076126
0,0,-0.024528012,0.042238921,0.040054023,1.552608728,0.236578599,0.684028685,-0.020683762,-0.296420097,-0.954833627,0.300942091,-0.021658775,0.132270389,-0.353317562,-0.871076126
0,0,-0.024528012,0.042238921,0.040054023,1.552608728,0.236578599,0.684028685,-0.020683762,-0.296420097,-0.954833627,0.300942091,-0.021658775,0.132270389,-0.367095712,-0.871076126
0,0,-0.024528012,0.042238921,0.040054023,1.552608728,0.236578599,0.684028685,-0.020683762,-0.296420097,-0.954833627,0.300942091,-0.021658775,0.132270389,-0.380873863,-0.871076126
0,0,-0.024528012,0.042238921,0.040054023,1.552608728,0.236578599,0.684028685,-0.020683762,-0.296420097,-0.954833627,0.300942091,-0.021658775,0.132270389,-0.394652014,-0.871076126
0,0,-0.024528012,0.042238921,0.040054023,1.552608728,0.236578599,0.684028685,-0.020683762,-0.296420097,-0.954833627,0.300942091,-0.021658775,0.132270389,-0.408430165,-0.871076126
1,0,-0.080343068,-0.099012971,0.048433959,1.423998594,0.297724485,0.568012297,-0.020242862,-0.352250874,-0.935686648,0.359975029,-0.021630858,0.158738132,-0.420404457,-0.871076126
1,0,-0.080343068,-0.099012971,0.048433959,1.423998594,0.297724485,0.568012297,-0.020242862,-0.352250874,-0.935686648,0.359975029,-0.021630858,0.158738132,-0.432378748,-0.871076126
1,0,-0.080343068,-0.099012971,0.048433959,1.423998594,0.297724485,0.568012297,-0.020242862,-0.352250874,-0.935686648,0.359975029,-0.021630858,0.158738132,-0.444143125,-0.871076126
1,0,-0.080343068,-0.099012971,0.048433959,1.423998594,0.297724485,0.568012297,-0.020242862,-0.352250874,-0.935686648,0.359975029,-0.021630858,0.158738132,-0.455907502,-0.871076126
1,0,-0.062661044,-0.153072834,-0.006941497,1.029269099,0.210970312,0.605407417,-0.019187095,-0.385990083,-0.922303379,0.396280826,-0.020800452,0.180162667,-0.467559267,-0.871076126
1,0,-0.062661044,-0.153072834,-0.006941497,1.029269099,0.210970312,0.605407417,-0.019187095,-0.385990083,-0.922303379,0.396280826,-0.020800452,0.180162667,-0.479211031,-0.871076126
1,0,-0.062661044,-0.153072834,-0.006941497,1.029269099,0.210970312,0.605407417,-0.019187095,-0.385990083,-0.922303379,0.396280826,-0.020800452,0.180162667,-0.490862796,-0.871076126
1,0,-0.082160972,-0.12960428,0.00491631,1.397966266,0.07307554,0.226383567,-0.020042386,-0.406925678,-0.913241386,0.419085941,-0.021942906,0.189701454,-0.494613507,-0.871076126
1,0,-0.082160972,-0.12960428,0.00491631,1.397966266,0.07307554,0.226383567,-0.020042386,-0.406925678,-0.913241386,0.419085941,-0.021942906,0.189701454,-0.497211257,-0.871076126
1,0,-0.082160972,-0.12960428,0.00491631,1.397966266,0.07307554,0.226383567,-0.020042386,-0.406925678,-0.913241386,0.419085941,-0.021942906,0.189701454,-0.499809007,-0.871076126
1,0,-0.162366539,-0.085352421,0.097602248,2.056851625,0.539286077,-0.207072482,-0.015337303,-0.438756824,-0.898474932,0.454214764,-0.017068716,0.190986634,-0.498759053,-0.871076126
1,0,-0.162366539,-0.085352421,0.097602248,2.056851625,0.539286077,-0.207072482,-0.015337303,-0.438756824,-0.898474932,0.454214764,-0.017068716,0.190986634,-0.497709099,-0.871076126
1,0,-0.162366539,-0.085352421,0.097602248,2.056851625,0.539286077,-0.207072482,-0.015337303,-0.438756824,-0.898474932,0.454214764,-0.017068716,0.190986634,-0.496659145,-0.871076126
1,0,-0.194107577,-0.243394881,0.019549429,2.017940044,0.899900913,-0.355788171,0.001694263,-0.476423621,-0.879214227,0.496582511,0.001927017,0.184705559,-0.496216962,-0.871076126
1,0,-0.194107577,-0.243394881,0.019549429,2.017940044,0.899900913,-0.355788171,0.001694263,-0.476423621,-0.879214227,0.496582511,0.001927017,0.184705559,-0.495570141,-0.871076126
1,0,-0.194107577,-0.243394881,0.019549429,2.017940044,0.899900913,-0.355788171,0.001694263,-0.476423621,-0.879214227,0.496582511,0.001927017,0.184705559,-0.49492332,-0.871076126
1,0,-0.024814293,-0.41146332,-0.063069224,0.89313066,0.719482899,-0.517930865,0.020145135,-0.502706349,-0.864222467,0.526726601,0.023305905,0.17451533,-0.489948255,-0.871076126
1,0,-0.024814293,-0.41146332,-0.063069224,0.89313066,0.719482899,-0.517930865,0.020145135,-0.502706349,-0.864222467,0.526726601,0.023305905,0.17451533,-0.48497319,-0.871076126
1,0,-0.024814293,-0.41146332,-0.063069224,0.89313066,0.719482899,-0.517930865,0.020145135,-0.502706349,-0.864222467,0.526726601,0.023305905,0.17451533,-0.479998124,-0.871076126
1,0,0.059639424,-0.23288095,-0.011071026,0.025928486,0.508647919,-0.664008975,0.036613058,-0.508940697,-0.860022545,0.533953755,0.042546515,0.160312096,-0.470838473,-0.871076126
1,0,0.059639424,-0.23288095,-0.011071026,0.025928486,0.508647919,-0.664008975,0.036613058,-0.508940697,-0.860022545,0.533953755,0.042546515,0.160312096,-0.46062414,-0.871076126
1,0,0.059639424,-0.23288095,-0.011071026,0.025928486,0.508647919,-0.664008975,0.036613058,-0.508940697,-0.860022545,0.533953755,0.042546515,0.160312096,-0.450409806,-0.871076126
1,0,0.015043892,-0.046958804,0.090769887,-0.054829769,0.428970367,-0.689501703,0.051499747,-0.50725615,-0.860255182,0.531997948,0.059794301,0.144695776,-0.439003763,-0.871076126
1,0,0.015043892,-0.046958804,0.090769887,-0.054829769,0.428970367,-0.689501703,0.051499747,-0.50725615,-0.860255182,0.531997948,0.059794301,0.144695776,-0.427597721,-0.871076126
1,0,0.015043892,-0.046958804,0.090769887,-0.054829769,0.428970367,-0.689501703,0.051499747,-0.50725615,-0.860255182,0.531997948,0.059794301,0.144695776,-0.416191678,-0.871076126
1,0,0.04064773,0.015275598,0.123271108,0.059701722,0.282891005,-0.681786299,0.064760059,-0.506822705,-0.859614372,0.531495066,0.075194134,0.12869164,-0.403308872,-0.871076126
1,0,0.04064773,0.015275598,0.123271108,0.059701722,0.282891005,-0.681786299,0.064760059,-0.506822705,-0.859614372,0.531495066,0.075194134,0.12869164,-0.3864576,-0.871076126
1,0,0.04064773,0.015275598,0.123271108,0.059701722,0.282891005,-0.681786299,0.064760059,-0.506822705,-0.859614372,0.531495066,0.075194134,0.12869164,-0.369606328,-0.871076126
1,0,0.085557371,0.014454842,0.120252311,0.038525291,0.107688338,-0.6347574,0.074782081,-0.506551325,-0.858960629,0.531180235,0.086842156,0.113273626,-0.351815077,-0.871076126
1,0,0.085557371,0.014454842,0.120252311,0.038525291,0.107688338,-0.6347574,0.074782081,-0.506551325,-0.858960629,0.531180235,0.086842156,0.113273626,-0.334023826,-0.871076126
1,0,0.085557371,0.014454842,0.120252311,0.038525291,0.107688338,-0.6347574,0.074782081,-0.506551325,-0.858960629,0.531180235,0.086842156,0.113273626,-0.316232575,-0.871076126
1,0,0.113984421,-0.0630036,0.050686836,-0.136797324,-0.107186161,-0.382286817,0.080183774,-0.505569994,-0.859051526,0.530042488,0.093070231,0.101195515,-0.300880077,-0.871076126
1,0,0.113984421,-0.0630036,0.050686836,-0.136797324,-0.107186161,-0.382286817,0.080183774,-0.505569994,-0.859051526,0.530042488,0.093070231,0.101195515,-0.277347801,-0.871076126
1,0,0.113984421,-0.0630036,0.050686836,-0.136797324,-0.107186161,-0.382286817,0.080183774,-0.505569994,-0.859051526,0.530042488,0.093070231,0.101195515,-0.253815525,-0.871076126
1,0,0.14502199,0.010008544,0.022056282,-0.43498978,-0.461342186,-0.164953098,0.077847987,-0.499831527,-0.862617016,0.523404268,0.090002482,0.095864654,-0.230935321,-0.871076126
1,0,0.14502199,0.010008544,0.022056282,-0.43498978,-0.461342186,-0.164953098,0.077847987,-0.499831527,-0.862617016,0.523404268,0.090002482,0.095864654,-0.208055118,-0.871076126
1,0,0.14502199,0.010008544,0.022056282,-0.43498978,-0.461342186,-0.164953098,0.077847987,-0.499831527,-0.862617016,0.523404268,0.090002482,0.095864654,-0.185174914,-0.871076126
1,0,0.142115206,0.098713219,0.109356642,-0.338507384,-0.761685669,-0.039401885,0.067891613,-0.492451668,-0.867687762,0.514904408,0.078085201,0.094378169,-0.161349141,-0.871076126
1,0,0.142115206,0.098713219,0.109356642,-0.338507384,-0.761685669,-0.039401885,0.067891613,-0.492451668,-0.867687762,0.514904408,0.078085201,0.094378169,-0.136201616,-0.871076126
1,0,0.142115206,0.098713219,0.109356642,-0.338507384,-0.761685669,-0.039401885,0.067891613,-0.492451668,-0.867687762,0.514904408,0.078085201,0.094378169,-0.111054092,-0.871076126
1,0,0.132293463,0.255545378,0.198886991,0.010497518,-0.669823945,-0.054600812,0.055328693,-0.489234418,-0.870395541,0.511211745,0.063481886,0.093813253,-0.086116448,-0.871076126
1,0,0.132293463,0.255545378,0.198886991,0.010497518,-0.669823945,-0.054600812,0.055328693,-0.489234418,-0.870395541,0.511211745,0.063481886,0.093813253,-0.061178805,-0.871076126
1,0,0.132293463,0.255545378,0.198886991,0.010497518,-0.669823945,-0.054600812,0.055328693,-0.489234418,-0.870395541,0.511211745,0.063481886,0.093813253,-0.036241162,-0.871076126
1,0,0.101636216,0.25948143,0.09107393,0.385233015,-0.549288929,-0.151251882,0.045855321,-0.492499113,-0.869104087,0.514958952,0.052712722,0.091337229,-0.010426781,-0.75537403
1,0,0.101636216,0.25948143,0.09107393,0.385233015,-0.549288929,-0.151251882,0.045855321,-0.492499113,-0.869104087,0.514958952,0.052712722,0.091337229,0.013073558,0.493562946
1,0,0.101636216,0.25948143,0.09107393,0.385233015,-0.549288929,-0.151251882,0.045855321,-0.492499113,-0.869104087,0.514958952,0.052712722,0.091337229,0.036573898,0.493562946
1,0,0.101170696,0.074085802,-0.067546308,0.383930564,-0.479524523,-0.22803013,0.039194975,-0.499852389,-0.865223289,0.52342835,0.045269468,0.086100951,0.06072211,0.493562946
1,0,0.101170696,0.074085802,-0.067546308,0.383930564,-0.479524523,-0.22803013,0.039194975,-0.499852389,-0.865223289,0.52342835,0.045269468,0.086100951,0.084870323,0.493562946
1,0,0.101170696,0.074085802,-0.067546308,0.383930564,-0.479524523,-0.22803013,0.039194975,-0.499852389,-0.865223289,0.52342835,0.045269468,0.086100951,0.109018536,0.493562946
1,0,0.106427953,-0.080291688,-0.144100368,0.079230219,-0.627172887,-0.152336001,0.031786222,-0.503113329,-0.863635659,0.527197501,0.036788524,0.081669269,0.133118422,0.493562946
1,0,0.106427953,-0.080291688,-0.144100368,0.079230219,-0.627172887,-0.152336001,0.031786222,-0.503113329,-0.863635659,0.527197501,0.036788524,0.081669269,0.155414448,0.493562946
1,0,0.106427953,-0.080291688,-0.144100368,0.079230219,-0.627172887,-0.152336001,0.031786222,-0.503113329,-0.863635659,0.527197501,0.036788524,0.081669269,0.177710474,0.493562946
1,0,0.117765486,0.134819508,0.051416159,0.783496201,-0.624478996,-0.381828368,0.022691721,-0.509102881,-0.860406518,0.53414214,0.026367144,0.075944607,0.204298706,0.664230549
1,0,0.117765486,0.134819508,0.051416159,0.783496201,-0.624478996,-0.381828368,0.022691721,-0.509102881,-0.860406518,0.53414214,0.026367144,0.075944607,0.230886938,0.664230549
1,0,0.117765486,0.134819508,0.051416159,0.783496201,-0.624478996,-0.381828368,0.022691721,-0.509102881,-0.860406518,0.53414214,0.026367144,0.075944607,0.257362558,0.664230549
1,0,0.066642284,0.394812763,0.041485727,1.717211604,-0.229834706,-0.714857638,0.020775367,-0.530509591,-0.847424328,0.559201588,0.024510987,0.062378475,0.285821426,0.76339297
1,0,0.066642284,0.394812763,0.041485727,1.717211604,-0.229834706,-0.714857638,0.020775367,-0.530509591,-0.847424328,0.559201588,0.024510987,0.062378475,0.314280294,0.76339297
1,0,0.066642284,0.394812763,0.041485727,1.717211604,-0.229834706,-0.714857638,0.020775367,-0.530509591,-0.847424328,0.559201588,0.024510987,0.062378475,0.334838108,0.76339297
1,0,0.000515278,0.117268801,-0.171548426,2.313722134,-0.05750595,-1.316771626,0.030063389,-0.564305902,-0.825018167,0.599592257,0.036423552,0.037231992,0.363895459,1.18836979
1,0,0.000515278,0.117268801,-0.171548426,2.313722134,-0.05750595,-1.316771626,0.030063389,-0.564305902,-0.825018167,0.599592257,0.036423552,0.037231992,0.392952809,1.18836979
1,0,0.000515278,0.117268801,-0.171548426,2.313722134,-0.05750595,-1.316771626,0.030063389,-0.564305902,-0.825018167,0.599592257,0.036423552,0.037231992,0.418362456,1.18836979
1,0,0.040250458,-0.313192189,-0.123948276,2.951110125,-0.237659454,-1.416782498,0.045427702,-0.605310977,-0.794691741,0.65015648,0.057101786,-0.002151504,0.448081215,1.40382538
1,0,0.040250458,-0.313192189,-0.123948276,2.951110125,-0.237659454,-1.416782498,0.045427702,-0.605310977,-0.794691741,0.65015648,0.057101786,-0.002151504,0.477799974,1.40382538
1,0,0.040250458,-0.313192189,-0.123948276,2.951110125,-0.237659454,-1.416782498,0.045427702,-0.605310977,-0.794691741,0.65015648,0.057101786,-0.002151504,0.508126504,1.40382538
1,0,0.036218647,-0.227189064,0.002547979,4.139832497,-0.43509686,-1.02598393,0.054769587,-0.658767283,-0.750350535,0.71917908,0.072862783,-0.038553831,0.536040768,1.40382538
1,0,0.036218647,-0.227189064,0.002547979,4.139832497,-0.43509686,-1.02598393,0.054769587,-0.658767283,-0.750350535,0.71917908,0.072862783,-0.038553831,0.563955032,1.40382538
1,0,0.036218647,-0.227189064,0.002547979,4.139832497,-0.43509686,-1.02598393,0.054769587,-0.658767283,-0.750350535,0.71917908,0.072862783,-0.038553831,0.587541051,1.40382538
1,0,-0.000646338,0.153666079,0.228275895,4.474908352,-0.453307807,-0.950069904,0.061345875,-0.720072746,-0.69118154,0.803907181,0.088523125,-0.074880425,0.61061488,1.40382538
1,0,-0.000646338,0.153666079,0.228275895,4.474908352,-0.453307807,-0.950069904,0.061345875,-0.720072746,-0.69118154,0.803907181,0.088523125,-0.074880425,0.633688709,1.40382538
1,0,-0.000646338,0.153666079,0.228275895,4.474908352,-0.453307807,-0.950069904,0.061345875,-0.720072746,-0.69118154,0.803907181,0.088523125,-0.074880425,0.652577952,1.40382538
1,0,0.016012184,-0.058689475,0.160644293,4.372941017,-0.208889857,-0.509589136,0.068689436,-0.778209805,-0.624236584,0.891810115,0.109596578,-0.111532541,0.661935928,1.40382538
1,0,0.016012184,-0.058689475,0.160644293,4.372941017,-0.208889857,-0.509589136,0.068689436,-0.778209805,-0.624236584,0.891810115,0.109596578,-0.111532541,0.671293903,1.40382538
1,0,0.016012184,-0.058689475,0.160644293,4.372941017,-0.208889857,-0.509589136,0.068689436,-0.778209805,-0.624236584,0.891810115,0.109596578,-0.111532541,0.67946017,1.40382538
1,0,0.097255692,-0.036397874,-0.129305363,3.930534363,-0.427603602,-0.038674522,0.069309324,-0.826593876,-0.558514833,0.973028341,0.123464569,-0.135751818,0.684955203,1.40382538
1,0,0.097255692,-0.036397874,-0.129305363,3.930534363,-0.427603602,-0.038674522,0.069309324,-0.826593876,-0.558514833,0.973028341,0.123464569,-0.135751818,0.690450236,1.40382538
1,0,0.097255692,-0.036397874,-0.129305363,3.930534363,-0.427603602,-0.038674522,0.069309324,-0.826593876,-0.558514833,0.973028341,0.123464569,-0.135751818,0.694468506,1.40382538
1,0,0.180292264,0.179459393,-0.112269521,3.750726461,-0.658382595,0.1320135,0.06244462,-0.867081761,-0.494236588,1.049314204,0.12567968,-0.151790842,0.700333992,1.40382538
1,0,0.180292264,0.179459393,-0.112269521,3.750726461,-0.658382595,0.1320135,0.06244462,-0.867081761,-0.494236588,1.049314204,0.12567968,-0.151790842,0.706199479,1.40382538
1,0,0.180292264,0.179459393,-0.112269521,3.750726461,-0.658382595,0.1320135,0.06244462,-0.867081761,-0.494236588,1.049314204,0.12567968,-0.151790842,0.711124986,1.40382538
1,0,0.093609765,0.224952459,-0.08756268,3.287642479,-0.632257044,0.359693944,0.052157514,-0.900291502,-0.432151347,1.120438769,0.120111736,-0.160363705,0.712958701,1.40382538
1,0,0.093609765,0.224952459,-0.08756268,3.287642479,-0.632257044,0.359693944,0.052157514,-0.900291502,-0.432151347,1.120438769,0.120111736,-0.160363705,0.714792416,1.40382538
1,0,0.093609765,0.224952459,-0.08756268,3.287642479,-0.632257044,0.359693944,0.052157514,-0.900291502,-0.432151347,1.120438769,0.120111736,-0.160363705,0.719064884,1.40382538
1,0,-0.020851117,0.156627893,-0.021190643,2.693820953,-0.449620068,0.442189217,0.039726291,-0.924755514,-0.37848264,1.180392596,0.104579059,-0.155540817,0.718741243,1.40382538
1,0,-0.020851117,0.156627893,-0.021190643,2.693820953,-0.449620068,0.442189217,0.039726291,-0.924755514,-0.37848264,1.180392596,0.104579059,-0.155540817,0.718417603,1.40382538
1,0,-0.020851117,0.156627893,-0.021190643,2.693820953,-0.449620068,0.442189217,0.039726291,-0.924755514,-0.37848264,1.180392596,0.104579059,-0.155540817,0.718746034,1.40382538
1,0,-0.055721723,0.085725486,-0.134881735,2.784933329,-0.33303386,0.287323087,0.030636318,-0.943986535,-0.328558177,1.234509731,0.09297589,-0.150865998,0.718071546,1.40382538
1,0,-0.055721723,0.085725486,-0.134881735,2.784933329,-0.33303386,0.287323087,0.030636318,-0.943986535,-0.328558177,1.234509731,0.09297589,-0.150865998,0.717397058,1.40382538
1,0,-0.055721723,0.085725486,-0.134881735,2.784933329,-0.33303386,0.287323087,0.030636318,-0.943986535,-0.328558177,1.234509731,0.09297589,-0.150865998,0.715777,1.40382538
1,0,-0.092224784,0.008270621,-0.139937639,3.135386229,-0.438037932,0.270734727,0.022232765,-0.961853504,-0.272659868,1.293698873,0.081360294,-0.146785942,0.716395361,1.40382538
1,0,-0.092224784,0.008270621,-0.139937639,3.135386229,-0.438037932,0.270734727,0.022232765,-0.961853504,-0.272659868,1.293698873,0.081360294,-0.146785942,0.717013722,1.40382538
1,0,-0.092224784,0.008270621,-0.139937639,3.135386229,-0.438037932,0.270734727,0.022232765,-0.961853504,-0.272659868,1.293698873,0.081360294,-0.146785942,0.717841963,1.40382538
1,0,-0.157948822,-0.005546331,-0.19206053,3.701300621,-0.391153157,-0.194630891,0.019460095,-0.977440238,-0.210313573,1.357981437,0.092266237,-0.166608069,0.720231643,1.40382538
1,0,-0.157948822,-0.005546331,-0.19206053,3.701300621,-0.391153157,-0.194630891,0.019460095,-0.977440238,-0.210313573,1.357981437,0.092266237,-0.166608069,0.722621322,1.40382538
1,0,-0.157948822,-0.005546331,-0.19206053,3.701300621,-0.391153157,-0.194630891,0.019460095,-0.977440238,-0.210313573,1.357981437,0.092266237,-0.166608069,0.724134264,1.40382538
1,0,-0.071812108,0.216992259,-0.0928092,4.805173397,-0.368727177,-0.921742558,0.030872826,-0.991696179,-0.124842174,1.441836243,0.242431015,-0.326658356,0.728323145,1.40382538
1,0,-0.071812108,0.216992259,-0.0928092,4.805173397,-0.368727177,-0.921742558,0.030872826,-0.991696179,-0.124842174,1.441836243,0.242431015,-0.326658356,0.732512025,1.40382538
1,0,-0.071812108,0.216992259,-0.0928092,4.805173397,-0.368727177,-0.921742558,0.030872826,-0.991696179,-0.124842174,1.441836243,0.242431015,-0.326658356,0.736053032,1.40382538
1,0,-0.086396597,-0.039484382,0.04005754,5.219315529,-0.055435859,-0.929027736,0.048646387,-0.998494506,-0.0253482,1.515916694,1.090434736,-1.181254187,0.733668349,1.40382538
1,0,-0.086396597,-0.039484382,0.04005754,5.219315529,-0.055435859,-0.929027736,0.048646387,-0.998494506,-0.0253482,1.515916694,1.090434736,-1.181254187,0.731283665,1.40382538
1,0,-0.086396597,-0.039484382,0.04005754,5.219315529,-0.055435859,-0.929027736,0.048646387,-0.998494506,-0.0253482,1.515916694,1.090434736,-1.181254187,0.728947308,1.40382538
1,0,-0.008794665,-0.147790313,0.310297966,5.791621685,-0.193320468,-1.584427595,0.07259167,-0.993871689,0.083362937,1.460029821,2.425151642,-2.521373003,0.729564436,1.40382538
1,0,-0.008794665,-0.147790313,0.310297966,5.791621685,-0.193320468,-1.584427595,0.07259167,-0.993871689,0.083362937,1.460029821,2.425151642,-2.521373003,0.730181565,1.40382538
1,0,-0.008794665,-0.147790313,0.310297966,5.791621685,-0.193320468,-1.584427595,0.07259167,-0.993871689,0.083362937,1.460029821,2.425151642,-2.521373003,0.726506488,1.40382538
1,0,-0.022891097,0.091007113,0.424338579,6.029687405,0.178112373,-1.940203547,0.108676016,-0.97363615,0.200554296,1.340663632,2.645006286,-2.745076856,0.715076869,1.40382538
1,0,-0.022891097,0.091007113,0.424338579,6.029687405,0.178112373,-1.940203547,0.108676016,-0.97363615,0.200554296,1.340663632,2.645006286,-2.745076856,0.70364725,1.40382538
1,0,-0.022891097,0.091007113,0.424338579,6.029687405,0.178112373,-1.940203547,0.108676016,-0.97363615,0.200554296,1.340663632,2.645006286,-2.745076856,0.690234383,1.40382538
1,0,-0.011172205,-0.232205927,0.129336357,5.148259163,0.527072668,-1.778615475,0.142184168,-0.939577162,0.311413378,1.221393099,2.713282817,-2.807852146,0.66862434,1.40382538
1,0,-0.011172205,-0.232205927,0.129336357,5.148259163,0.527072668,-1.778615475,0.142184168,-0.939577162,0.311413378,1.221393099,2.713282817,-2.807852146,0.647014298,1.40382538
1,0,-0.011172205,-0.232205927,0.129336357,5.148259163,0.527072668,-1.778615475,0.142184168,-0.939577162,0.311413378,1.221393099,2.713282817,-2.807852146,0.616904719,1.40382538
1,0,0.181132779,-0.468510747,-0.246149421,2.74377346,0.081800088,-1.546033382,0.170521259,-0.90642786,0.386407733,1.134748219,2.725998189,-2.813451143,0.589063855,1.40382538
1,0,0.181132779,-0.468510747,-0.246149421,2.74377346,0.081800088,-1.546033382,0.170521259,-0.90642786,0.386407733,1.134748219,2.725998189,-2.813451143,0.56122299,1.40382538
1,0,0.181132779,-0.468510747,-0.246149421,2.74377346,0.081800088,-1.546033382,0.170521259,-0.90642786,0.386407733,1.134748219,2.725998189,-2.813451143,0.529073014,1.40382538
1,0,0.158309996,-0.207556307,-0.154240012,1.115259409,-0.389901489,-1.109781027,0.195831269,-0.886849642,0.41850698,1.090481784,2.70392996,-2.79381975,0.502991218,1.40382538
1,0,0.158309996,-0.207556307,-0.154240012,1.115259409,-0.389901489,-1.109781027,0.195831269,-0.886849642,0.41850698,1.090481784,2.70392996,-2.79381975,0.476909421,1.283212082
1,0,0.158309996,-0.207556307,-0.154240012,1.115259409,-0.389901489,-1.109781027,0.195831269,-0.886849642,0.41850698,1.090481784,2.70392996,-2.79381975,0.453239891,1.283212082
1,0,-0.032084316,0.070745587,0.006667137,0.626552045,-0.122771673,-0.819849491,0.215800166,-0.875768661,0.431809366,1.0670258,2.678138706,-2.771131265,0.425349868,1.283212082
1,0,-0.032084316,0.070745587,0.006667137,0.626552045,-0.122771673,-0.819849491,0.215800166,-0.875768661,0.431809366,1.0670258,2.678138706,-2.771131265,0.397459845,1.257602547
1,0,-0.032084316,0.070745587,0.006667137,0.626552045,-0.122771673,-0.819849491,0.215800166,-0.875768661,0.431809366,1.0670258,2.678138706,-2.771131265,0.370082012,1.257602547
1,0,-0.012732208,0.227853894,0.110140324,0.477923602,0.137886971,-0.519772291,0.22672148,-0.868371904,0.441052854,1.051909799,2.666771456,-2.757267319,0.340117388,1.257602547
1,0,-0.012732208,0.227853894,0.110140324,0.477923602,0.137886971,-0.519772291,0.22672148,-0.868371904,0.441052854,1.051909799,2.666771456,-2.757267319,0.310152763,0.781039167
1,0,-0.012732208,0.227853894,0.110140324,0.477923602,0.137886971,-0.519772291,0.22672148,-0.868371904,0.441052854,1.051909799,2.666771456,-2.757267319,0.289719406,0.781039167
1,0,0.03961581,-0.028406262,0.042888641,0.03100599,0.016168613,-0.195953935,0.232143253,-0.863881826,0.447009981,1.042926125,2.662605222,-2.750140019,0.272211357,0.781039167
1,0,0.03961581,-0.028406262,0.042888641,0.03100599,0.016168613,-0.195953935,0.232143253,-0.863881826,0.447009981,1.042926125,2.662605222,-2.750140019,0.254703308,0.739838326
1,0,0.03961581,-0.028406262,0.042888641,0.03100599,0.016168613,-0.195953935,0.232143253,-0.863881826,0.447009981,1.042926125,2.662605222,-2.750140019,0.239866492,0.739838326
1,0,0.046081051,-0.087598026,-0.042499781,-0.524205029,-0.26886192,0.004901451,0.234528035,-0.866121709,0.441394597,1.0473902,2.653193071,-2.741938836,0.229158739,0.739838326
1,0,0.046081051,-0.087598026,-0.042499781,-0.524205029,-0.26886192,0.004901451,0.234528035,-0.866121709,0.441394597,1.0473902,2.653193071,-2.741938836,0.218450986,0.739838326
1,0,0.046081051,-0.087598026,-0.042499781,-0.524205029,-0.26886192,0.004901451,0.234528035,-0.866121709,0.441394597,1.0473902,2.653193071,-2.741938836,0.205896016,0.739838326
1,0,0.016609609,0.073309064,-0.002144098,-0.400141597,-0.373144358,0.093279779,0.236854061,-0.870549738,0.431327373,1.056318361,2.639418948,-2.734093018,0.196505243,0.739838326
1,0,0.016609609,0.073309064,-0.002144098,-0.400141597,-0.373144358,0.093279779,0.236854061,-0.870549738,0.431327373,1.056318361,2.639418948,-2.734093018,0.18711447,0.629086958
1,0,0.016609609,0.073309064,-0.002144098,-0.400141597,-0.373144358,0.093279779,0.236854061,-0.870549738,0.431327373,1.056318361,2.639418948,-2.734093018,0.18081549,0.629086958
1,0,-0.002859324,0.027022719,0.070823073,-0.294319838,-0.330156416,0.200824618,0.237066329,-0.874067843,0.424033642,1.063513758,2.631809306,-2.733327422,0.17518976,0.629086958
1,0,-0.002859324,0.027022719,0.070823073,-0.294319838,-0.330156416,0.200824618,0.237066329,-0.874067843,0.424033642,1.063513758,2.631809306,-2.733327422,0.16956403,0.629086958
1,0,-0.002859324,0.027022719,0.070823073,-0.294319838,-0.330156416,0.200824618,0.237066329,-0.874067843,0.424033642,1.063513758,2.631809306,-2.733327422,0.16853441,0.629086958
1,0,0.026789308,-0.093457103,0.089562297,-0.599889278,-0.354659945,0.259495914,0.235905856,-0.878633857,0.415151596,1.072993546,2.624853314,-2.733003529,0.166982125,0.629086958
1,0,0.026789308,-0.093457103,0.089562297,-0.599889278,-0.354659945,0.259495914,0.235905856,-0.878633857,0.415151596,1.072993546,2.624853314,-2.733003529,0.165429841,0.629086958
1,0,0.026789308,-0.093457103,0.089562297,-0.599889278,-0.354659945,0.259495914,0.235905856,-0.878633857,0.415151596,1.072993546,2.624853314,-2.733003529,0.164880476,0.629086958
1,0,0.028336585,-0.083672941,0.091823339,-1.14215517,-0.425352514,0.364714026,0.233427852,-0.887273788,0.397815287,1.091400591,2.610954574,-2.72608322,0.163892173,0.629086958
1,0,0.028336585,-0.083672941,0.091823339,-1.14215517,-0.425352514,0.364714026,0.233427852,-0.887273788,0.397815287,1.091400591,2.610954574,-2.72608322,0.162903871,0.629086958
1,0,0.028336585,-0.083672941,0.091823339,-1.14215517,-0.425352514,0.364714026,0.233427852,-0.887273788,0.397815287,1.091400591,2.610954574,-2.72608322,0.159677151,0.629086958
1,0,0.018450007,0.106664181,0.014078021,-0.834232807,-0.45778203,0.155074432,0.233670875,-0.895543039,0.378682613,1.109650037,2.588721509,-2.711648139,0.15680782,0.629086958
1,0,0.018450007,0.106664181,0.014078021,-0.834232807,-0.45778203,0.155074432,0.233670875,-0.895543039,0.378682613,1.109650037,2.588721509,-2.711648139,0.15393849,0.629086958
1,0,0.018450007,0.106664181,0.014078021,-0.834232807,-0.45778203,0.155074432,0.233670875,-0.895543039,0.378682613,1.109650037,2.588721509,-2.711648139,0.149507721,0.629086958
1,0,-0.014957622,0.216874063,0.041077733,-0.416776299,-0.301698536,0.090496838,0.233875424,-0.901108265,0.365110815,1.122318808,2.571882206,-2.701660668,0.143750534,0.629086958
1,0,-0.014957622,0.216874063,0.041077733,-0.416776299,-0.301698536,0.090496838,0.233875424,-0.901108265,0.365110815,1.122318808,2.571882206,-2.701660668,0.137993348,0.629086958
1,0,-0.014957622,0.216874063,0.041077733,-0.416776299,-0.301698536,0.090496838,0.233875424,-0.901108265,0.365110815,1.122318808,2.571882206,-2.701660668,0.129560222,0.629086958
1,0,-0.016984254,-0.096723139,0.037931561,-0.402527362,-0.089925513,0.201463401,0.232545123,-0.904298842,0.35800299,1.129734474,2.565525436,-2.698873501,0.118175248,0.629086958
1,0,-0.016984254,-0.096723139,0.037931561,-0.402527362,-0.089925513,0.201463401,0.232545123,-0.904298842,0.35800299,1.129734474,2.565525436,-2.698873501,0.106790275,0.480476692
1,0,-0.016984254,-0.096723139,0.037931561,-0.402527362,-0.089925513,0.201463401,0.232545123,-0.904298842,0.35800299,1.129734474,2.565525436,-2.698873501,0.101330991,0.480476692
1,0,0.054153532,-0.176396787,0.032855153,-0.725342989,-0.111790113,0.145539418,0.229919314,-0.909113109,0.347347647,1.141149978,2.556877499,-2.690464423,0.094383188,0.480476692
1,0,0.054153532,-0.176396787,0.032855153,-0.725342989,-0.111790113,0.145539418,0.229919314,-0.909113109,0.347347647,1.141149978,2.556877499,-2.690464423,0.087435385,0.480476692
2,0,0.054153532,-0.176396787,0.032855153,-0.725342989,-0.111790113,0.145539418,0.229919314,-0.909113109,0.347347647,1.141149978,2.556877499,-2.690464423,0.077534097,0.480476692
2,0,0.051066712,0.101827502,-0.109071016,-0.277826279,-0.37722519,0.064042591,0.229969591,-0.91351825,0.335556567,1.151850454,2.540775024,-2.678994428,0.073968571,0.480476692
2,0,0.051066712,0.101827502,-0.109071016,-0.277826279,-0.37722519,0.064042591,0.229969591,-0.91351825,0.335556567,1.151850454,2.540775024,-2.678994428,0.070403046,0.303962177
2,0,0.051066712,0.101827502,-0.109071016,-0.277826279,-0.37722519,0.064042591,0.229969591,-0.91351825,0.335556567,1.151850454,2.540775024,-2.678994428,0.074592062,0.303962177
2,0,-0.016124815,-0.053752363,0.113581061,0.348597467,-0.121614471,0.188896641,0.22883226,-0.910266876,0.345036417,1.143928129,2.555985632,-2.707758424,0.077850033,0.303962177
2,0,-0.016124815,-0.053752363,0.113581061,0.348597467,-0.121614471,0.188896641,0.22883226,-0.910266876,0.345036417,1.143928129,2.555985632,-2.707758424,0.081108005,0.303962177
2,0,-0.016124815,-0.053752363,0.113581061,0.348597467,-0.121614471,0.188896641,0.22883226,-0.910266876,0.345036417,1.143928129,2.555985632,-2.707758424,0.092563152,0.303962177
2,0,0.021806851,0.089102209,0.020481229,0.04536232,-0.491572589,0.210116982,0.22680448,-0.91209954,0.34151727,1.148376451,2.555363281,-2.722623612,0.109513537,0.530410088
2,0,0.021806851,0.089102209,0.020481229,0.04536232,-0.491572589,0.210116982,0.22680448,-0.91209954,0.34151727,1.148376451,2.555363281,-2.722623612,0.126463921,0.530410088
2,0,-0.01344426,0.052584231,-0.045666814,0.210176229,-0.366451681,0.229183346,0.225571766,-0.911866724,0.342952311,1.14780892,2.559798957,-2.736888011,0.139740667,0.530410088
2,0,0.069295943,0.033516228,0.090560079,-1.496780396,-0.573924124,-0.002886963,0.228631735,-0.953086138,0.198379129,1.263272827,2.285465292,-2.495482938,0.147898434,0.530410088
2,0,0.069295943,0.033516228,0.090560079,-1.496780396,-0.573924124,-0.002886963,0.228631735,-0.953086138,0.198379129,1.263272827,2.285465292,-2.495482938,0.156056201,0.530410088
2,0,-0.051536813,0.036180556,-0.051256895,-0.017955001,-0.049217779,-0.029519852,0.233390823,-0.955887556,0.178345799,1.272666711,2.223292655,-2.443422365,0.154813318,0.530410088
2,0,-0.051536813,0.036180556,-0.051256895,-0.017955001,-0.049217779,-0.029519852,0.233390823,-0.955887556,0.178345799,1.272666711,2.223292655,-2.443422365,0.153570434,0.530410088
2,0,-0.051536813,0.036180556,-0.051256895,-0.017955001,-0.049217779,-0.029519852,0.233390823,-0.955887556,0.178345799,1.272666711,2.223292655,-2.443422365,0.152327551,0.530410088
2,0,0.03359367,-0.080933511,-0.129668951,-0.815181077,-0.128440171,0.116550274,0.232794017,-0.957471609,0.170454234,1.278107767,2.202814632,-2.423874215,0.153614833,0.530410088
2,0,0.03359367,-0.080933511,-0.129668951,-0.815181077,-0.128440171,0.116550274,0.232794017,-0.957471609,0.170454234,1.278107767,2.202814632,-2.423874215,0.154902115,0.530410088
2,0,0.03359367,-0.080933511,-0.129668951,-0.815181077,-0.128440171,0.116550274,0.232794017,-0.957471609,0.170454234,1.278107767,2.202814632,-2.423874215,0.156189397,0.530410088
2,0,0.005310297,0.013414681,-0.083920002,-1.606638193,-0.107696183,0.327326924,0.228759274,-0.962464333,0.146052301,1.295940465,2.13901206,-2.359898384,0.156680515,0.530410088
2,0,0.005310297,0.013414681,-0.083920002,-1.606638193,-0.107696183,0.327326924,0.228759274,-0.962464333,0.146052301,1.295940465,2.13901206,-2.359898384,0.157171632,0.530410088
2,0,0.005310297,0.013414681,-0.083920002,-1.606638193,-0.107696183,0.327326924,0.228759274,-0.962464333,0.146052301,1.295940465,2.13901206,-2.359898384,0.15766275,0.530410088
2,0,0.026948825,0.1720348,-0.009795189,-1.575754642,0.039682277,0.085654519,0.22421062,-0.967855752,0.113950364,1.316560331,2.041005521,-2.259737193,0.15191107,0.530410088
2,0,0.026948825,0.1720348,-0.009795189,-1.575754642,0.039682277,0.085654519,0.22421062,-0.967855752,0.113950364,1.316560331,2.041005521,-2.259737193,0.146159391,0.530410088
2,0,0.026948825,0.1720348,-0.009795189,-1.575754642,0.039682277,0.085654519,0.22421062,-0.967855752,0.113950364,1.316560331,2.041005521,-2.259737193,0.140407711,0.530410088
2,0,0.008158252,-0.09029752,0.097570181,-0.893601298,0.119496405,0.070230179,0.222752795,-0.970568478,0.091530688,1.327580349,1.960669825,-2.175524839,0.131993846,0.530410088
2,0,0.008158252,-0.09029752,0.097570181,-0.893601298,0.119496405,0.070230179,0.222752795,-0.970568478,0.091530688,1.327580349,1.960669825,-2.175524839,0.123579981,0.530410088
2,0,0.008158252,-0.09029752,0.097570181,-0.893601298,0.119496405,0.070230179,0.222752795,-0.970568478,0.091530688,1.327580349,1.960669825,-2.175524839,0.115166116,0.530410088
2,0,0.057994753,-0.19764334,0.092622399,-0.576549351,0.028816607,-0.242535621,0.224536762,-0.971422791,0.076947354,1.331153356,1.900947504,-2.111351131,0.10623788,0.530410088
2,0,0.057994753,-0.19764334,0.092622399,-0.576549351,0.028816607,-0.242535621,0.224536762,-0.971422791,0.076947354,1.331153356,1.900947504,-2.111351131,0.097309644,0.530410088
2,0,0.057994753,-0.19764334,0.092622399,-0.576549351,0.028816607,-0.242535621,0.224536762,-0.971422791,0.076947354,1.331153356,1.900947504,-2.111351131,0.088381408,0.530410088
2,0,-0.006472692,-0.088845134,-0.02445662,-0.789693475,-0.262505949,0.254796594,0.22482574,-0.972066641,0.067378297,1.333881242,1.861969823,-2.074449651,0.084198117,0.530410088
2,0,-0.006472692,-0.088845134,-0.02445662,-0.789693475,-0.262505949,0.254796594,0.22482574,-0.972066641,0.067378297,1.333881242,1.861969823,-2.074449651,0.080014826,0.530410088
2,0,-0.006472692,-0.088845134,-0.02445662,-0.789693475,-0.262505949,0.254796594,0.22482574,-0.972066641,0.067378297,1.333881242,1.861969823,-2.074449651,0.075831534,0.530410088
2,0,-0.018754244,0.208353817,-0.003281355,-0.518377662,-0.252600253,0.056971524,0.22332859,-0.973367214,0.051772598,1.339487732,1.798594978,-2.013287886,0.072936031,0.530410088
2,0,-0.018754244,0.208353817,-0.003281355,-0.518377662,-0.252600253,0.056971524,0.22332859,-0.973367214,0.051772598,1.339487732,1.798594978,-2.013287886,0.070040528,0.530410088
2,0,-0.018754244,0.208353817,-0.003281355,-0.518377662,-0.252600253,0.056971524,0.22332859,-0.973367214,0.051772598,1.339487732,1.798594978,-2.013287886,0.067145024,0.530410088
2,0,0.015684798,0.176110864,-0.062474489,0.280302465,-0.482122838,0.067980871,0.222977713,-0.973671198,0.04738234,1.340817505,1.780179903,-2.001812067,0.07273041,0.535151417
2,0,0.015684798,0.176110864,-0.062474489,0.280302465,-0.482122838,0.067980871,0.222977713,-0.973671198,0.04738234,1.340817505,1.780179903,-2.001812067,0.078315796,0.535151417
2,0,0.015684798,0.176110864,-0.062474489,0.280302465,-0.482122838,0.067980871,0.222977713,-0.973671198,0.04738234,1.340817505,1.780179903,-2.001812067,0.083901182,0.535151417
2,0,0.004088789,0.00624311,-0.114936113,0.809651315,-0.759216309,0.099481061,0.221359611,-0.973618567,0.05537986,1.340586616,1.815944871,-2.051275124,0.096904559,0.923920441
2,0,0.004088789,0.00624311,-0.114936113,0.809651315,-0.759216309,0.099481061,0.221359611,-0.973618567,0.05537986,1.340586616,1.815944871,-2.051275124,0.109907936,0.923920441
2,0,0.004088789,0.00624311,-0.114936113,0.809651315,-0.759216309,0.099481061,0.221359611,-0.973618567,0.05537986,1.340586616,1.815944871,-2.051275124,0.122911313,0.923920441
2,0,0.049230084,-0.00282675,0.002180338,0.818329692,-0.950908661,-0.030727595,0.220865518,-0.972788393,0.070007719,1.336976288,1.877748217,-2.133131617,0.14083515,1.103622551
2,0,0.049230084,-0.00282675,0.002180338,0.818329692,-0.950908661,-0.030727595,0.220865518,-0.972788393,0.070007719,1.336976288,1.877748217,-2.133131617,0.158758988,1.103622551
2,0,0.049230084,-0.00282675,0.002180338,0.818329692,-0.950908661,-0.030727595,0.220865518,-0.972788393,0.070007719,1.336976288,1.877748217,-2.133131617,0.176682825,1.103622551
2,0,-0.081509665,-0.383377314,0.050075769,-0.318833888,-0.315190345,-0.034263581,0.225857571,-0.971357703,0.073839612,1.33087945,1.886772854,-2.154045751,0.18011849,1.103622551
2,0,-0.081509665,-0.383377314,0.050075769,-0.318833888,-0.315190345,-0.034263581,0.225857571,-0.971357703,0.073839612,1.33087945,1.886772854,-2.154045751,0.183554155,1.103622551
2,0,-0.081509665,-0.383377314,0.050075769,-0.318833888,-0.315190345,-0.034263581,0.225857571,-0.971357703,0.073839612,1.33087945,1.886772854,-2.154045751,0.18698982,1.103622551
2,0,-0.045027584,0.044678152,-0.143357754,-0.729487538,-0.259533048,-0.065363288,0.225264177,-0.972640097,0.056808703,1.336337058,1.817832317,-2.089293438,0.188969407,1.103622551
2,0,-0.045027584,0.044678152,-0.143357754,-0.729487538,-0.259533048,-0.065363288,0.225264177,-0.972640097,0.056808703,1.336337058,1.817832317,-2.089293438,0.190948995,1.103622551
2,0,-0.045027584,0.044678152,-0.143357754,-0.729487538,-0.259533048,-0.065363288,0.225264177,-0.972640097,0.056808703,1.336337058,1.817832317,-2.089293438,0.192928582,1.103622551
2,0,0.021095902,0.229545832,0.005530357,0.650239766,-0.157515675,-0.179362506,0.228507131,-0.971976221,0.055198438,1.333496215,1.807816875,-2.084091659,0.192720281,1.103622551
2,0,0.021095902,0.229545832,0.005530357,0.650239766,-0.157515675,-0.179362506,0.228507131,-0.971976221,0.055198438,1.333496215,1.807816875,-2.084091659,0.192511981,1.103622551
2,0,0.021095902,0.229545832,0.005530357,0.650239766,-0.157515675,-0.179362506,0.228507131,-0.971976221,0.055198438,1.333496215,1.807816875,-2.084091659,0.19230368,1.103622551
2,0,-0.058284461,0.055057883,0.007655978,1.128042698,0.095624357,-0.116548762,0.230876431,-0.970202744,0.073504508,1.326066103,1.879021455,-2.157544484,0.190372648,1.103622551
2,0,-0.058284461,0.055057883,0.007655978,1.128042698,0.095624357,-0.116548762,0.230876431,-0.970202744,0.073504508,1.326066103,1.879021455,-2.157544484,0.188441617,1.103622551
2,0,-0.058284461,0.055057883,0.007655978,1.128042698,0.095624357,-0.116548762,0.230876431,-0.970202744,0.073504508,1.326066103,1.879021455,-2.157544484,0.186510585,1.103622551
2,0,0.093529195,0.00437361,0.106257915,0.99603641,0.058229949,-0.176339284,0.234214142,-0.967339516,0.096942283,1.314515882,1.963231574,-2.242272858,0.179099642,1.103622551
2,0,0.093529195,0.00437361,0.106257915,0.99603641,0.058229949,-0.176339284,0.234214142,-0.967339516,0.096942283,1.314515882,1.963231574,-2.242272858,0.171688699,1.103622551
2,0,0.093529195,0.00437361,0.106257915,0.99603641,0.058229949,-0.176339284,0.234214142,-0.967339516,0.096942283,1.314515882,1.963231574,-2.242272858,0.165682681,1.103622551
2,0,0.216624498,-0.073933661,0.158654213,0.852575839,-0.516992271,-0.170321658,0.238377154,-0.964547932,0.113240987,1.303725072,2.014285191,-2.299265532,0.175250603,1.103622551
2,0,0.216624498,-0.073933661,0.158654213,0.852575839,-0.516992271,-0.170321658,0.238377154,-0.964547932,0.113240987,1.303725072,2.014285191,-2.299265532,0.184818525,1.103622551
2,0,0.216624498,-0.073933661,0.158654213,0.852575839,-0.516992271,-0.170321658,0.238377154,-0.964547932,0.113240987,1.303725072,2.014285191,-2.299265532,0.197718918,1.103622551
2,0,0.168725148,0.115133762,0.256948471,0.939947069,-0.789515078,-0.054726779,0.242254883,-0.96176666,0.127739713,1.293381547,2.05604049,-2.357620431,0.216567996,1.103622551
2,0,0.168725148,0.115133762,0.256948471,0.939947069,-0.789515078,-0.054726779,0.242254883,-0.96176666,0.127739713,1.293381547,2.05604049,-2.357620431,0.235417073,1.103622551
2,0,0.168725148,0.115133762,0.256948471,0.939947069,-0.789515078,-0.054726779,0.242254883,-0.96176666,0.127739713,1.293381547,2.05604049,-2.357620431,0.255956478,1.103622551
2,0,-0.018574655,0.038983524,0.127388597,0.513723612,-0.508629799,0.03140635,0.243885756,-0.959819853,0.138799891,1.286359629,2.088199251,-2.404802265,0.269251819,1.103622551
2,0,-0.018574655,0.038983524,0.127388597,0.513723612,-0.508629799,0.03140635,0.243885756,-0.959819853,0.138799891,1.286359629,2.088199251,-2.404802265,0.282547159,1.103622551
2,0,-0.018574655,0.038983524,0.127388597,0.513723612,-0.508629799,0.03140635,0.243885756,-0.959819853,0.138799891,1.286359629,2.088199251,-2.404802265,0.299225456,1.103622551
2,0,-0.007748455,-0.051857352,-0.017581582,0.113846317,-0.368861347,-0.021612074,0.244595215,-0.959127963,0.142290577,1.283904145,2.097680407,-2.42333572,0.311118038,1.103622551
2,0,-0.007748455,-0.051857352,-0.017581582,0.113846317,-0.368861347,-0.021612074,0.244595215,-0.959127963,0.142290577,1.283904145,2.097680407,-2.42333572,0.32301062,1.103622551
2,0,-0.007748455,-0.051857352,-0.017581582,0.113846317,-0.368861347,-0.021612074,0.244595215,-0.959127963,0.142290577,1.283904145,2.097680407,-2.42333572,0.338220692,1.103622551
2,0,0.046898454,0.048972964,-0.083943725,0.630278707,-0.541542053,-0.144033596,0.24742806,-0.957968295,0.145175725,1.279834165,2.101408123,-2.436524107,0.358936009,1.103622551
2,0,0.046898454,0.048972964,-0.083943725,0.630278707,-0.541542053,-0.144033596,0.24742806,-0.957968295,0.145175725,1.279834165,2.101408123,-2.436524107,0.379651326,1.103622551
2,0,0.046898454,0.048972964,-0.083943725,0.630278707,-0.541542053,-0.144033596,0.24742806,-0.957968295,0.145175725,1.279834165,2.101408123,-2.436524107,0.398899766,1.103622551
2,0,-0.05909729,0.06447798,-0.075902343,1.483763695,-0.35458675,-0.266406804,0.252883613,-0.953484297,0.164066121,1.26459091,2.146314204,-2.493695783,0.418463916,1.103622551
2,0,-0.05909729,0.06447798,-0.075902343,1.483763695,-0.35458675,-0.266406804,0.252883613,-0.953484297,0.164066121,1.26459091,2.146314204,-2.493695783,0.438028066,1.103622551
2,0,-0.05909729,0.06447798,-0.075902343,1.483763695,-0.35458675,-0.266406804,0.252883613,-0.953484297,0.164066121,1.26459091,2.146314204,-2.493695783,0.45494239,1.103622551
2,0,-0.114626139,-0.109479904,-0.15532577,1.492983103,-0.075499654,-0.325664967,0.259462237,-0.946381032,0.192463905,1.241843193,2.209015872,-2.563815317,0.46638754,1.103622551
2,0,-0.114626139,-0.109479904,-0.15532577,1.492983103,-0.075499654,-0.325664967,0.259462237,-0.946381032,0.192463905,1.241843193,2.209015872,-2.563815317,0.477832691,1.103622551
2,0,-0.114626139,-0.109479904,-0.15532577,1.492983103,-0.075499654,-0.325664967,0.259462237,-0.946381032,0.192463905,1.241843193,2.209015872,-2.563815317,0.483859647,1.103622551
2,0,-0.040022671,-0.115899265,-0.156608701,1.110260129,-0.058161207,-0.291993141,0.265440434,-0.93947345,0.216635048,1.221090151,2.25529814,-2.613949315,0.487685553,1.103622551
2,0,-0.040022671,-0.115899265,-0.156608701,1.110260129,-0.058161207,-0.291993141,0.265440434,-0.93947345,0.216635048,1.221090151,2.25529814,-2.613949315,0.491511458,1.103622551
2,0,-0.040022671,-0.115899265,-0.156608701,1.110260129,-0.058161207,-0.291993141,0.265440434,-0.93947345,0.216635048,1.221090151,2.25529814,-2.613949315,0.49457224,1.103622551
2,0,0.007745564,-0.101216674,-0.065362692,0.820092022,-0.102901995,-0.226402551,0.270559192,-0.933923066,0.233635008,1.205234457,2.283090926,-2.645310701,0.497212972,1.103622551
2,0,0.007745564,-0.101216674,-0.065362692,0.820092022,-0.102901995,-0.226402551,0.270559192,-0.933923066,0.233635008,1.205234457,2.283090926,-2.645310701,0.499853704,1.103622551
2,0,0.007745564,-0.101216674,-0.065362692,0.820092022,-0.102901995,-0.226402551,0.270559192,-0.933923066,0.233635008,1.205234457,2.283090926,-2.645310701,0.494452484,1.103622551
2,0,0.015815198,0.058341682,0.012935162,0.876883149,-0.118528351,-0.1801043,0.274528772,-0.929022193,0.248095393,1.191761506,2.305659374,-2.672208301,0.489872697,1.103622551
2,0,0.015815198,0.058341682,0.012935162,0.876883149,-0.118528351,-0.1801043,0.274528772,-0.929022193,0.248095393,1.191761506,2.305659374,-2.672208301,0.48529291,1.103622551
2,0,0.015815198,0.058341682,0.012935162,0.876883149,-0.118528351,-0.1801043,0.274528772,-0.929022193,0.248095393,1.191761506,2.305659374,-2.672208301,0.472937743,1.103622551
2,0,0.003806829,0.108742714,0.056565046,0.822630286,0.009830191,-0.13313961,0.277702332,-0.92377466,0.263669968,1.177823306,2.330280321,-2.69999551,0.458144545,1.103622551
2,0,0.003806829,0.108742714,0.056565046,0.822630286,0.009830191,-0.13313961,0.277702332,-0.92377466,0.263669968,1.177823306,2.330280321,-2.69999551,0.443351347,1.103622551
2,0,0.003806829,0.108742714,0.056565046,0.822630286,0.009830191,-0.13313961,0.277702332,-0.92377466,0.263669968,1.177823306,2.330280321,-2.69999551,0.424964107,1.103622551
2,0,0.046756208,0.029591978,0.026343465,0.777394414,0.014182911,-0.099491,0.279796898,-0.918796837,0.278434426,1.165021549,2.353753812,-2.725008088,0.406427249,1.103622551
2,0,0.046756208,0.029591978,0.026343465,0.777394414,0.014182911,-0.099491,0.279796898,-0.918796837,0.278434426,1.165021549,2.353753812,-2.725008088,0.38789039,0.980045264
2,0,0.046756208,0.029591978,0.026343465,0.777394414,0.014182911,-0.099491,0.279796898,-0.918796837,0.278434426,1.165021549,2.353753812,-2.725008088,0.386793552,0.980045264
2,0,0.0488379,-0.011345804,0.015874982,0.665713549,-0.008024003,-0.03911959,0.281026363,-0.914281905,0.291740984,1.153731692,2.374899035,-2.747998723,0.385821251,0.980045264
2,0,0.0488379,-0.011345804,0.015874982,0.665713549,-0.008024003,-0.03911959,0.281026363,-0.914281905,0.291740984,1.153731692,2.374899035,-2.747998723,0.38484895,0.980045264
2,0,0.0488379,-0.011345804,0.015874982,0.665713549,-0.008024003,-0.03911959,0.281026363,-0.914281905,0.291740984,1.153731692,2.374899035,-2.747998723,0.386821247,0.980045264
2,0,0.02466616,-0.009240806,0.00412333,0.474452019,-0.029565237,0.014821832,0.281394333,-0.910740852,0.302271605,1.145074444,2.391948454,-2.767129388,0.388431706,0.980045264
2,0,0.02466616,-0.009240806,0.00412333,0.474452019,-0.029565237,0.014821832,0.281394333,-0.910740852,0.302271605,1.145074444,2.391948454,-2.767129388,0.390042165,0.980045264
2,0,0.02466616,-0.009240806,0.00412333,0.474452019,-0.029565237,0.014821832,0.281394333,-0.910740852,0.302271605,1.145074444,2.391948454,-2.767129388,0.38750475,0.980045264
2,0,-0.001957953,-0.058021963,0.005683303,0.179877743,-0.062961228,0.097605452,0.281178236,-0.90865165,0.308691889,1.140043543,2.402804268,-2.779913687,0.384427393,0.980045264
2,0,-0.001957953,-0.058021963,0.005683303,0.179877743,-0.062961228,0.097605452,0.281178236,-0.90865165,0.308691889,1.140043543,2.402804268,-2.779913687,0.381350036,0.980045264
2,0,-0.001957953,-0.058021963,0.005683303,0.179877743,-0.062961228,0.097605452,0.281178236,-0.90865165,0.308691889,1.140043543,2.402804268,-2.779913687,0.380926455,0.980045264
2,0,0.022943735,-0.011241376,0.016197801,0.156751752,-0.090544015,0.126805246,0.281804502,-0.90750438,0.311483085,1.137304086,2.406176789,-2.786136698,0.381061325,0.980045264
2,0,0.022943735,-0.011241376,0.016197801,0.156751752,-0.090544015,0.126805246,0.281804502,-0.90750438,0.311483085,1.137304086,2.406176789,-2.786136698,0.381196196,0.980045264
2,0,0.022943735,-0.011241376,0.016197801,0.156751752,-0.090544015,0.126805246,0.281804502,-0.90750438,0.311483085,1.137304086,2.406176789,-2.786136698,0.38131574,0.980045264
2,0,0.010428578,-0.049034894,0.023730516,-0.025068838,-0.052391104,0.151009977,0.283028156,-0.907064378,0.311656088,1.136257725,2.404297039,-2.786848738,0.379868283,0.980045264
2,0,0.010428578,-0.049034894,0.023730516,-0.025068838,-0.052391104,0.151009977,0.283028156,-0.907064378,0.311656088,1.136257725,2.404297039,-2.786848738,0.378420826,0.980045264
2,0,0.010428578,-0.049034894,0.023730516,-0.025068838,-0.052391104,0.151009977,0.283028156,-0.907064378,0.311656088,1.136257725,2.404297039,-2.786848738,0.366518407,0.980045264
2,0,0.038140535,-0.062357008,0.021640539,-0.278313309,-0.08167851,0.170918077,0.282568425,-0.908421278,0.308100373,1.139492033,2.399393102,-2.783996371,0.353830503,0.980045264
2,0,0.038140535,-0.062357008,0.021640539,-0.278313309,-0.08167851,0.170918077,0.282568425,-0.908421278,0.308100373,1.139492033,2.399393102,-2.783996371,0.3411426,0.980045264
2,0,0.038140535,-0.062357008,0.021640539,-0.278313309,-0.08167851,0.170918077,0.282568425,-0.908421278,0.308100373,1.139492033,2.399393102,-2.783996371,0.322506012,0.980045264
2,0,0.000932515,-0.032859862,-0.033602595,-0.650559306,-0.125864521,0.158845901,0.279432178,-0.912619174,0.298401982,1.149645775,2.389011874,-2.774466333,0.302514689,0.980045264
2,0,0.000932515,-0.032859862,-0.033602595,-0.650559306,-0.125864521,0.158845901,0.279432178,-0.912619174,0.298401982,1.149645775,2.389011874,-2.774466333,0.282523366,0.669604091
2,0,0.000932515,-0.032859862,-0.033602595,-0.650559306,-0.125864521,0.158845901,0.279432178,-0.912619174,0.298401982,1.149645775,2.389011874,-2.774466333,0.269776107,0.669604091
2,0,-0.038717628,0.067022026,-0.029817939,-0.546570837,-0.062916085,0.125104278,0.278219342,-0.916416824,0.2877056,1.159033794,2.372955296,-2.759433282,0.256250945,0.669604091
2,0,-0.038717628,0.067022026,-0.029817939,-0.546570837,-0.062916085,0.125104278,0.278219342,-0.916416824,0.2877056,1.159033794,2.372955296,-2.759433282,0.242725784,0.669604091
2,0,-0.038717628,0.067022026,-0.029817939,-0.546570837,-0.062916085,0.125104278,0.278219342,-0.916416824,0.2877056,1.159033794,2.372955296,-2.759433282,0.233986338,0.669604091
2,0,-0.051940858,-0.020857632,-0.012413263,-0.516574323,0.08136408,0.162004516,0.275695533,-0.919540584,0.28006646,1.166909926,2.364059073,-2.748643425,0.222977956,0.669604091
2,0,-0.051940858,-0.020857632,-0.012413263,-0.516574323,0.08136408,0.162004516,0.275695533,-0.919540584,0.28006646,1.166909926,2.364059073,-2.748643425,0.211969574,0.669604091
3,0,-0.051940858,-0.020857632,-0.012413263,-0.516574323,0.08136408,0.162004516,0.275695533,-0.919540584,0.28006646,1.166909926,2.364059073,-2.748643425,0.195455948,0.669604091
3,0,0.033190668,-0.066746831,-0.023763657,-0.659217298,0.009755309,0.203888118,0.273251325,-0.922921717,0.271198541,1.17560184,2.35242415,-2.734867707,0.179702752,0.669604091
3,0,0.033190668,-0.066746831,-0.023763657,-0.659217298,0.009755309,0.203888118,0.273251325,-0.922921717,0.271198541,1.17560184,2.35242415,-2.734867707,0.163949556,0.669604091
3,0,0.033190668,-0.066746831,-0.023763657,-0.659217298,0.009755309,0.203888118,0.273251325,-0.922921717,0.271198541,1.17560184,2.35242415,-2.734867707,0.147880649,0.669604091
3,0,0.034449309,-0.013417065,0.010075688,-0.474644065,-0.040928602,0.154882208,0.269902319,-0.927042365,0.260278553,1.186446335,2.338044583,-2.719776043,0.133491518,0.669604091
3,0,0.034449309,-0.013417065,0.010075688,-0.474644065,-0.040928602,0.154882208,0.269902319,-0.927042365,0.260278553,1.186446335,2.338044583,-2.719776043,0.119102387,0.396145425
3,0,0.034449309,-0.013417065,0.010075688,-0.474644065,-0.040928602,0.154882208,0.269902319,-0.927042365,0.260278553,1.186446335,2.338044583,-2.719776043,0.110182429,0.396145425
3,0,-0.023365617,0.065033853,0.012635827,-0.220831484,0.104009673,0.039980397,0.268085927,-0.929138362,0.25462085,1.192075492,2.330439916,-2.711029075,0.099346293,0.396145425
3,0,-0.023365617,0.065033853,0.012635827,-0.220831484,0.104009673,0.039980397,0.268085927,-0.929138362,0.25462085,1.192075492,2.330439916,-2.711029075,0.088510158,0.306162075
3,0,-0.023365617,0.065033853,0.012635827,-0.220831484,0.104009673,0.039980397,0.268085927,-0.929138362,0.25462085,1.192075492,2.330439916,-2.711029075,0.079875073,0.306162075
3,0,0.015871644,-0.031108618,-0.026859403,-0.252929151,0.072434932,0.032667886,0.264615238,-0.930758893,0.252322286,1.196482921,2.332418629,-2.710019508,0.071631105,0.306162075
3,0,0.015871644,-0.031108618,-0.026859403,-0.252929151,0.072434932,0.032667886,0.264615238,-0.930758893,0.252322286,1.196482921,2.332418629,-2.710019508,0.063387136,0.306162075
3,0,0.015871644,-0.031108618,-0.026859403,-0.252929151,0.072434932,0.032667886,0.264615238,-0.930758893,0.252322286,1.196482921,2.332418629,-2.710019508,0.055563217,0.306162075
3,0,0.005527109,-0.069603145,-0.023249388,-0.509369195,0.085151091,0.08016254,0.26391238,-0.932882965,0.245111004,1.202335869,2.31927512,-2.69473435,0.046377087,0.306162075
3,0,0.005527109,-0.069603145,-0.023249388,-0.509369195,0.085151091,0.08016254,0.26391238,-0.932882965,0.245111004,1.202335869,2.31927512,-2.69473435,0.037190956,0.306162075
3,0,0.005527109,-0.069603145,-0.023249388,-0.509369195,0.085151091,0.08016254,0.26391238,-0.932882965,0.245111004,1.202335869,2.31927512,-2.69473435,0.027183392,0.306162075
3,0,0.002086878,-0.123390079,0.010450006,-0.829677522,0.082526036,0.179382175,0.262149304,-0.936377287,0.233399093,1.212162743,2.298242468,-2.670454309,0.016002005,0.306162075
3,0,0.002086878,-0.123390079,0.010450006,-0.829677522,0.082526036,0.179382175,0.262149304,-0.936377287,0.233399093,1.212162743,2.298242468,-2.670454309,0.004820619,0.184260551
3,0,0.002086878,-0.123390079,0.010450006,-0.829677522,0.082526036,0.179382175,0.262149304,-0.936377287,0.233399093,1.212162743,2.298242468,-2.670454309,-0.003922737,-0.252907253
3,0,0.033423215,0.121658623,-0.03161025,-0.430693924,-0.056708414,0.019892864,0.260918498,-0.939345181,0.222602785,1.220716056,2.27711665,-2.647085556,-0.008701529,-0.252907253
3,0,0.033423215,0.121658623,-0.03161025,-0.430693924,-0.056708414,0.019892864,0.260918498,-0.939345181,0.222602785,1.220716056,2.27711665,-2.647085556,-0.01348032,-0.252907253
3,0,-0.075814456,0.221369743,0.039512396,0.15304476,0.213431612,-0.039604496,0.261071116,-0.939645469,0.221151948,1.221592647,2.273601248,-2.642485961,-0.020402974,-0.252907253
3,0,-0.075814456,0.221369743,0.039512396,0.15304476,0.213431612,-0.039604496,0.261071116,-0.939645469,0.221151948,1.221592647,2.273601248,-2.642485961,-0.027325629,-0.252907253
3,0,-0.075814456,0.221369743,0.039512396,0.15304476,0.213431612,-0.039604496,0.261071116,-0.939645469,0.221151948,1.221592647,2.273601248,-2.642485961,-0.034248283,-0.252907253
3,0,-0.075814456,0.221369743,0.039512396,0.15304476,0.213431612,-0.039604496,0.261071116,-0.939645469,0.221151948,1.221592647,2.273601248,-2.642485961,-0.041295474,-0.252907253
3,0,0.016275376,-0.118721247,0.07579267,-0.597536445,0.228721142,0.243232101,0.251607537,-0.94396019,0.213618696,1.23442982,2.274718533,-2.625622158,-0.051241391,-0.314289401
3,0,0.016275376,-0.118721247,0.07579267,-0.597536445,0.228721142,0.243232101,0.251607537,-0.94396019,0.213618696,1.23442982,2.274718533,-2.625622158,-0.061187309,-0.314289401
3,0,0.016275376,-0.118721247,0.07579267,-0.597536445,0.228721142,0.243232101,0.251607537,-0.94396019,0.213618696,1.23442982,2.274718533,-2.625622158,-0.070771389,-0.314289401
3,0,0.020453736,-0.073318064,0.056603789,-0.951610386,0.305483103,0.405915767,0.244423211,-0.948683441,0.200642109,1.249046245,2.258139892,-2.602310885,-0.082888853,-0.440958631
3,0,0.020453736,-0.073318064,0.056603789,-0.951610386,0.305483103,0.405915767,0.244423211,-0.948683441,0.200642109,1.249046245,2.258139892,-2.602310885,-0.095006318,-0.440958631
3,0,0.020453736,-0.073318064,0.056603789,-0.951610386,0.305483103,0.405915767,0.244423211,-0.948683441,0.200642109,1.249046245,2.258139892,-2.602310885,-0.106583841,-0.440958631
3,0,0.002300113,-0.049582899,0.009310484,-1.187137961,0.213526964,0.546151102,0.233707175,-0.955603182,0.179453775,1.271700029,2.225628535,-2.562800355,-0.117011809,-0.440958631
3,0,0.002300113,-0.049582899,0.009310484,-1.187137961,0.213526964,0.546151102,0.233707175,-0.955603182,0.179453775,1.271700029,2.225628535,-2.562800355,-0.127439776,-0.440958631
3,0,0.02219902,0.143997729,-0.008439422,-0.772627711,0.325830877,0.345412016,0.224718258,-0.960813761,0.162291244,1.289923149,2.196265952,-2.525800846,-0.139369159,-0.440958631
3,0,0.02219902,0.143997729,-0.008439422,-0.772627711,0.325830877,0.345412016,0.224718258,-0.960813761,0.162291244,1.289923149,2.196265952,-2.525800846,-0.151298541,-0.440958631
3,0,0.02219902,0.143997729,-0.008439422,-0.772627711,0.325830877,0.345412016,0.224718258,-0.960813761,0.162291244,1.289923149,2.196265952,-2.525800846,-0.163227924,-0.440958631
3,0,0.035866991,0.290255249,-0.004726291,-0.039641868,0.216034532,0.250668079,0.21813038,-0.96342504,0.155663699,1.29950271,2.190609402,-2.51464274,-0.168532931,-0.440958631
3,0,0.035866991,0.290255249,-0.004726291,-0.039641868,0.216034532,0.250668079,0.21813038,-0.96342504,0.155663699,1.29950271,2.190609402,-2.51464274,-0.173837938,-0.440958631
3,0,0.035866991,0.290255249,-0.004726291,-0.039641868,0.216034532,0.250668079,0.21813038,-0.96342504,0.155663699,1.29950271,2.190609402,-2.51464274,-0.179142945,-0.440958631
3,0,0.035866991,0.290255249,-0.004726291,-0.039641868,0.216034532,0.250668079,0.21813038,-0.96342504,0.155663699,1.29950271,2.190609402,-2.51464274,-0.183662467,-0.440958631
3,0,-0.036861569,0.131627917,-0.049768806,0.140285105,0.327163905,0.233975172,0.212810233,-0.964084268,0.158912271,1.301973605,2.212202813,-2.531646272,-0.189594343,-0.440958631
3,0,-0.036861569,0.131627917,-0.049768806,0.140285105,0.327163905,0.233975172,0.212810233,-0.964084268,0.158912271,1.301973605,2.212202813,-2.531646272,-0.195526219,-0.440958631
3,0,-0.036861569,0.131627917,-0.049768806,0.140285105,0.327163905,0.233975172,0.212810233,-0.964084268,0.158912271,1.301973605,2.212202813,-2.531646272,-0.20010336,-0.440958631
3,0,-0.028923392,-0.055187643,-0.029501438,-0.355240166,0.487623662,0.309613734,0.20635213,-0.965455115,0.15910688,1.307184342,2.227631059,-2.539025803,-0.209609375,-0.494821648
3,0,-0.028923392,-0.055187643,-0.029501438,-0.355240166,0.487623662,0.309613734,0.20635213,-0.965455115,0.15910688,1.307184342,2.227631059,-2.539025803,-0.21911539,-0.494821648
3,0,-0.028923392,-0.055187643,-0.029501438,-0.355240166,0.487623662,0.309613734,0.20635213,-0.965455115,0.15910688,1.307184342,2.227631059,-2.539025803,-0.227843503,-0.494821648
3,0,0.050432384,-0.136894286,-0.003177524,-0.968106151,0.464685738,0.429236948,0.197690383,-0.968953431,0.148484275,1.320962191,2.21499792,-2.515782476,-0.238233366,-0.577909178
3,0,0.050432384,-0.136894286,-0.003177524,-0.968106151,0.464685738,0.429236948,0.197690383,-0.968953431,0.148484275,1.320962191,2.21499792,-2.515782476,-0.248623229,-0.577909178
3,0,0.050432384,-0.136894286,-0.003177524,-0.968106151,0.464685738,0.429236948,0.197690383,-0.968953431,0.148484275,1.320962191,2.21499792,-2.515782476,-0.256744157,-0.577909178
3,0,0.045932427,-0.200336933,-0.025416136,-1.731760859,0.279026091,0.551327765,0.187007844,-0.974541605,0.123680063,1.344667265,2.155118146,-2.446432226,-0.263858645,-0.577909178
3,0,0.045932427,-0.200336933,-0.025416136,-1.731760859,0.279026091,0.551327765,0.187007844,-0.974541605,0.123680063,1.344667265,2.155118146,-2.446432226,-0.270973132,-0.577909178
3,0,0.045932427,-0.200336933,-0.025416136,-1.731760859,0.279026091,0.551327765,0.187007844,-0.974541605,0.123680063,1.344667265,2.155118146,-2.446432226,-0.278848051,-0.577909178
3,0,0.019136667,-0.112816334,-0.061394691,-2.118900061,0.146698162,0.387803674,0.177396223,-0.980351567,0.086264186,1.372236061,2.023407602,-2.307462864,-0.285896168,-0.577909178
3,0,0.019136667,-0.112816334,-0.061394691,-2.118900061,0.146698162,0.387803674,0.177396223,-0.980351567,0.086264186,1.372236061,2.023407602,-2.307462864,-0.292944285,-0.577909178
3,0,0.019136667,-0.112816334,-0.061394691,-2.118900061,0.146698162,0.387803674,0.177396223,-0.980351567,0.086264186,1.372236061,2.023407602,-2.307462864,-0.301672177,-0.577909178
3,0,-0.006354243,0.051017582,-0.019047976,-2.195673227,0.178684473,0.351812333,0.170004383,-0.984441042,0.044436105,1.394164183,1.826458544,-2.104071612,-0.311346032,-0.577909178
3,0,-0.006354243,0.051017582,-0.019047976,-2.195673227,0.178684473,0.351812333,0.170004383,-0.984441042,0.044436105,1.394164183,1.826458544,-2.104071612,-0.321019887,-0.577909178
3,0,-0.018109828,0.031106532,0.035535991,-2.603850842,0.303768724,0.450925797,0.161984622,-0.986792564,-0.001206109,1.408090281,1.563350641,-1.832646293,-0.332548348,-0.72208438
3,0,-0.018109828,0.031106532,0.035535991,-2.603850842,0.303768724,0.450925797,0.161984622,-0.986792564,-0.001206109,1.408090281,1.563350641,-1.832646293,-0.344076808,-0.72208438
3,0,-0.018109828,0.031106532,0.035535991,-2.603850842,0.303768724,0.450925797,0.161984622,-0.986792564,-0.001206109,1.408090281,1.563350641,-1.832646293,-0.355605269,-0.72208438
3,0,-0.018109828,0.031106532,0.035535991,-2.603850842,0.303768724,0.450925797,0.161984622,-0.986792564,-0.001206109,1.408090281,1.563350641,-1.832646293,-0.367524846,-0.72208438
3,0,0.00394164,-0.109822869,-0.010125577,-3.705116987,0.323783338,0.501278579,0.152964115,-0.986304581,-0.061684888,1.405105188,1.187479489,-1.444836994,-0.38334314,-0.917020244
3,0,0.00394164,-0.109822869,-0.010125577,-3.705116987,0.323783338,0.501278579,0.152964115,-0.986304581,-0.061684888,1.405105188,1.187479489,-1.444836994,-0.399161435,-0.917020244
3,0,0.00394164,-0.109822869,-0.010125577,-3.705116987,0.323783338,0.501278579,0.152964115,-0.986304581,-0.061684888,1.405105188,1.187479489,-1.444836994,-0.413617517,-0.917020244
3,0,0.01733543,-0.235674918,-0.017974436,-4.984621525,0.108862743,0.588297546,0.142530546,-0.97881496,-0.146990821,1.364591158,0.769993723,-1.015866024,-0.427803028,-0.917020244
3,0,0.01733543,-0.235674918,-0.017974436,-4.984621525,0.108862743,0.588297546,0.142530546,-0.97881496,-0.146990821,1.364591158,0.769993723,-1.015866024,-0.441988538,-0.917020244
3,0,0.01733543,-0.235674918,-0.017974436,-4.984621525,0.108862743,0.588297546,0.142530546,-0.97881496,-0.146990821,1.364591158,0.769993723,-1.015866024,-0.455000226,-0.917020244
3,0,0.039799064,-0.159936965,-0.069407642,-5.655928612,-0.093779825,0.450844109,0.13236551,-0.959185541,-0.249884725,1.284107779,0.487129252,-0.724927233,-0.465369215,-0.917020244
3,0,0.039799064,-0.159936965,-0.069407642,-5.655928612,-0.093779825,0.450844109,0.13236551,-0.959185541,-0.249884725,1.284107779,0.487129252,-0.724927233,-0.475738203,-0.917020244
3,0,0.040712133,0.129740357,0.097834766,-5.721468449,0.069532156,0.590247512,0.122480296,-0.925269842,-0.358990818,1.181746376,0.32879537,-0.558764071,-0.494184554,-0.976996591
3,0,0.040712133,0.129740357,0.097834766,-5.721468449,0.069532156,0.590247512,0.122480296,-0.925269842,-0.358990818,1.181746376,0.32879537,-0.558764071,-0.512630906,-0.976996591
3,0,0.040712133,0.129740357,0.097834766,-5.721468449,0.069532156,0.590247512,0.122480296,-0.925269842,-0.358990818,1.181746376,0.32879537,-0.558764071,-0.528783776,-0.976996591
3,0,0.040712133,0.129740357,0.097834766,-5.721468449,0.069532156,0.590247512,0.122480296,-0.925269842,-0.358990818,1.181746376,0.32879537,-0.558764071,-0.544936646,-0.976996591
3,0,-0.007384531,0.069572508,0.11882472,-6.172314167,0.596737146,0.91641134,0.112685166,-0.879292905,-0.462759286,1.074375525,0.238858417,-0.451159028,-0.574435841,-1.644312845
3,0,-0.007384531,0.069572508,0.11882472,-6.172314167,0.596737146,0.91641134,0.112685166,-0.879292905,-0.462759286,1.074375525,0.238858417,-0.451159028,-0.603935036,-1.644312845
3,0,0.008571692,-0.052023172,0.126695275,-7.161655426,0.64897722,1.082850456,0.101352394,-0.81218648,-0.574526608,0.947890278,0.174613696,-0.359740787,-0.635150605,-1.875067843
3,0,0.008571692,-0.052023172,0.126695275,-7.161655426,0.64897722,1.082850456,0.101352394,-0.81218648,-0.574526608,0.947890278,0.174613696,-0.359740787,-0.666366173,-1.875067843
3,0,0.008571692,-0.052023172,0.126695275,-7.161655426,0.64897722,1.082850456,0.101352394,-0.81218648,-0.574526608,0.947890278,0.174613696,-0.359740787,-0.697581742,-1.875067843
3,0,0.008571692,-0.052023172,0.126695275,-7.161655426,0.64897722,1.082850456,0.101352394,-0.81218648,-0.574526608,0.947890278,0.174613696,-0.359740787,-0.726263926,-1.875067843
3,0,-0.011015899,0.076830685,0.219592333,-7.395112514,0.742843926,1.150739074,0.09422186,-0.720245957,-0.687290311,0.80415677,0.136242505,-0.292312369,-0.757898822,-2.022703408
3,0,-0.011015899,0.076830685,0.219592333,-7.395112514,0.742843926,1.150739074,0.09422186,-0.720245957,-0.687290311,0.80415677,0.136242505,-0.292312369,-0.789533717,-2.022703408
3,0,-0.174950406,-0.048516691,0.090327382,-6.893950939,1.189352632,1.65923214,0.08960779,-0.619145095,-0.780147254,0.667653578,0.114358941,-0.230189028,-0.83483568,-2.648578956
3,0,-0.174950406,-0.048516691,0.090327382,-6.893950939,1.189352632,1.65923214,0.08960779,-0.619145095,-0.780147254,0.667653578,0.114358941,-0.230189028,-0.880137643,-2.648578956
3,0,-0.174950406,-0.048516691,0.090327382,-6.893950939,1.189352632,1.65923214,0.08960779,-0.619145095,-0.780147254,0.667653578,0.114358941,-0.230189028,-0.924496642,-2.648578956
3,0,-0.014411822,0.119420826,0.00955987,-5.686385632,0.926172137,1.392962694,0.089896828,-0.517002404,-0.851250291,0.54334532,0.105215654,-0.174904007,-0.959399685,-2.648578956
3,0,-0.014411822,0.119420826,0.00955987,-5.686385632,0.926172137,1.392962694,0.089896828,-0.517002404,-0.851250291,0.54334532,0.105215654,-0.174904007,-0.994302728,-2.648578956
3,0,-0.014411822,0.119420826,0.00955987,-5.686385632,0.926172137,1.392962694,0.089896828,-0.517002404,-0.851250291,0.54334532,0.105215654,-0.174904007,-1.034263146,-2.648578956
3,0,0.146074995,0.06548366,-0.095794022,-4.368329048,0.361737818,1.015204549,0.090100303,-0.433310747,-0.896729469,0.448163063,0.100140482,-0.137080054,-1.059921871,-2.648578956
3,0,0.146074995,0.06548366,-0.095794022,-4.368329048,0.361737818,1.015204549,0.090100303,-0.433310747,-0.896729469,0.448163063,0.100140482,-0.137080054,-1.085580595,-2.648578956
3,0,0.146074995,0.06548366,-0.095794022,-4.368329048,0.361737818,1.015204549,0.090100303,-0.433310747,-0.896729469,0.448163063,0.100140482,-0.137080054,-1.11123932,-2.648578956
3,0,0.084748514,-0.143312156,-0.056492925,-4.046857357,0.138389722,0.844857037,0.086073399,-0.358044773,-0.929728627,0.366173012,0.092315914,-0.107474774,-1.129939046,-2.648578956
3,0,0.084748514,-0.143312156,-0.056492925,-4.046857357,0.138389722,0.844857037,0.086073399,-0.358044773,-0.929728627,0.366173012,0.092315914,-0.107474774,-1.148638773,-2.648578956
3,0,0.019596063,-0.289133906,0.143271327,-3.654315472,0.307088017,0.653083086,0.085658863,-0.287861168,-0.95383358,0.291992715,0.089564565,-0.08520687,-1.16415833,-2.648578956
3,0,0.019596063,-0.289133906,0.143271327,-3.654315472,0.307088017,0.653083086,0.085658863,-0.287861168,-0.95383358,0.291992715,0.089564565,-0.08520687,-1.174749013,-2.648578956
3,0,0.006330214,-0.291698873,0.14129436,-3.776280642,0.528787851,0.816952765,0.089769393,-0.217165872,-0.971998155,0.218910116,0.092094271,-0.063140589,-1.189810694,-2.648578956
3,0,0.006330214,-0.291698873,0.14129436,-3.776280642,0.528787851,0.816952765,0.089769393,-0.217165872,-0.971998155,0.218910116,0.092094271,-0.063140589,-1.204872374,-2.648578956
3,0,0.006330214,-0.291698873,0.14129436,-3.776280642,0.528787851,0.816952765,0.089769393,-0.217165872,-0.971998155,0.218910116,0.092094271,-0.063140589,-1.218272304,-2.648578956
3,0,0.006330214,-0.291698873,0.14129436,-3.776280642,0.528787851,0.816952765,0.089769393,-0.217165872,-0.971998155,0.218910116,0.092094271,-0.063140589,-1.231672234,-2.648578956
3,0,-0.043420009,-0.137933671,0.1264624,-3.050197124,0.690689504,0.788709164,0.099327944,-0.1508843,-0.983548641,0.151462747,0.100648115,-0.039751793,-1.243772407,-2.648578956
3,0,-0.043420009,-0.137933671,0.1264624,-3.050197124,0.690689504,0.788709164,0.099327944,-0.1508843,-0.983548641,0.151462747,0.100648115,-0.039751793,-1.256879021,-2.648578956
3,0,0.082730614,0.067482002,0.039340317,-2.567112446,0.278472573,0.655290127,0.107195206,-0.098594435,-0.989337325,0.098754875,0.10792947,-0.019728953,-1.265346098,-2.648578956
3,0,0.082730614,0.067482002,0.039340317,-2.567112446,0.278472573,0.655290127,0.107195206,-0.098594435,-0.989337325,0.098754875,0.10792947,-0.019728953,-1.273813174,-2.648578956
3,0,0.082730614,0.067482002,0.039340317,-2.567112446,0.278472573,0.655290127,0.107195206,-0.098594435,-0.989337325,0.098754875,0.10792947,-0.019728953,-1.283107052,-2.648578956
3,0,0.106782883,-0.090367958,-0.040509939,-2.306556463,0.25192523,0.670461476,0.110654518,-0.050577395,-0.992571175,0.050598984,0.111024268,-0.001336198,-1.292051178,-2.648578956
3,0,0.106782883,-0.090367958,-0.040509939,-2.306556463,0.25192523,0.670461476,0.110654518,-0.050577395,-0.992571175,0.050598984,0.111024268,-0.001336198,-1.300995303,-2.648578956
3,0,0.106782883,-0.090367958,-0.040509939,-2.306556463,0.25192523,0.670461476,0.110654518,-0.050577395,-0.992571175,0.050598984,0.111024268,-0.001336198,-1.308993466,-2.648578956
3,0,0.106782883,-0.090367958,-0.040509939,-2.306556463,0.25192523,0.670461476,0.110654518,-0.050577395,-0.992571175,0.050598984,0.111024268,-0.001336198,-1.316991628,-2.648578956
3,0,-0.000882983,0.074908659,0.116488159,-1.715771556,0.462230682,0.636680245,0.117352962,-0.012301903,-0.993014097,0.012302214,0.117632946,0.016751352,-1.319335334,-2.648578956
3,0,-0.000882983,0.074908659,0.116488159,-1.715771556,0.462230682,0.636680245,0.117352962,-0.012301903,-0.993014097,0.012302214,0.117632946,0.016751352,-1.321679039,-2.648578956
3,0,0.011080578,0.166704193,0.099445045,-1.0308007,0.304057926,0.362590343,0.125698805,0.013440924,-0.991977394,-0.013441328,0.126043637,0.029845867,-1.316940652,-2.648578956
3,0,0.011080578,0.166704193,0.099445045,-1.0308007,0.304057926,0.362590343,0.125698805,0.013440924,-0.991977394,-0.013441328,0.126043637,0.029845867,-1.312202265,-2.648578956
3,0,0.011080578,0.166704193,0.099445045,-1.0308007,0.304057926,0.362590343,0.125698805,0.013440924,-0.991977394,-0.013441328,0.126043637,0.029845867,-1.30356516,-2.648578956
3,0,0.012861162,-0.086232655,0.045808673,-0.924137533,0.255032301,0.411088556,0.130708367,0.030934595,-0.990938127,-0.03093953,0.131146564,0.039260699,-1.295630086,-2.648578956
3,0,0.012861162,-0.086232655,0.045808673,-0.924137533,0.255032301,0.411088556,0.130708367,0.030934595,-0.990938127,-0.03093953,0.131146564,0.039260699,-1.287695011,-2.648578956
3,0,0.012861162,-0.086232655,0.045808673,-0.924137533,0.255032301,0.411088556,0.130708367,0.030934595,-0.990938127,-0.03093953,0.131146564,0.039260699,-1.280030508,-2.648578956
3,0,0.012861162,-0.086232655,0.045808673,-0.924137533,0.255032301,0.411088556,0.130708367,0.030934595,-0.990938127,-0.03093953,0.131146564,0.039260699,-1.272366005,-2.648578956
3,0,-0.0988556,-0.104113318,0.014961481,-0.848957062,0.448660135,0.698882103,0.13845174,0.047060452,-0.989250422,-0.047077841,0.139052993,0.052857461,-1.27005207,-2.648578956
3,0,-0.0988556,-0.104113318,0.014961481,-0.848957062,0.448660135,0.698882103,0.13845174,0.047060452,-0.989250422,-0.047077841,0.139052993,0.052857461,-1.270380833,-2.648578956
3,0,-0.0988556,-0.104113318,0.014961481,-0.848957062,0.448660135,0.698882103,0.13845174,0.047060452,-0.989250422,-0.047077841,0.139052993,0.052857461,-1.270709596,-2.648578956
3,0,-0.032492265,0.156509995,-0.042084038,-0.824047625,0.157575205,0.700671554,0.145757824,0.061675128,-0.987396002,-0.061714296,0.146559954,0.069750562,-1.267214329,-2.648578956
3,0,-0.032492265,0.156509995,-0.042084038,-0.824047625,0.157575205,0.700671554,0.145757824,0.061675128,-0.987396002,-0.061714296,0.146559954,0.069750562,-1.263719061,-2.648578956
3,0,-0.032492265,0.156509995,-0.042084038,-0.824047625,0.157575205,0.700671554,0.145757824,0.061675128,-0.987396002,-0.061714296,0.146559954,0.069750562,-1.260223793,-2.648578956
3,0,0.0621057,0.072830901,-0.126759112,-0.805185437,-0.086425237,0.723955512,0.146359429,0.075392626,-0.986354351,-0.075464235,0.147309364,0.085361086,-1.257452641,-2.648578956
3,0,0.0621057,0.072830901,-0.126759112,-0.805185437,-0.086425237,0.723955512,0.146359429,0.075392626,-0.986354351,-0.075464235,0.147309364,0.085361086,-1.241335164,-2.648578956
3,0,-0.019236982,0.055670604,0.007291198,-1.007791877,0.196678042,0.739026129,0.148661584,0.090660788,-0.984723508,-0.090785446,0.149836363,0.103544244,-1.225643414,-2.648578956
3,0,-0.019236982,0.055670604,0.007291198,-1.007791877,0.196678042,0.739026129,0.148661584,0.090660788,-0.984723508,-0.090785446,0.149836363,0.103544244,-1.205336564,-2.648578956
3,0,0.063053057,-0.062589869,0.086254179,-0.834033489,-0.405844778,0.450939715,0.15552859,0.16955328,-0.973171353,-0.170376375,0.158476076,0.160748227,-1.180582607,-2.648578956
3,0,0.063053057,-0.062589869,0.086254179,-0.834033489,-0.405844778,0.450939715,0.15552859,0.16955328,-0.973171353,-0.170376375,0.158476076,0.160748227,-1.155828649,-2.648578956
3,0,0.063053057,-0.062589869,0.086254179,-0.834033489,-0.405844778,0.450939715,0.15552859,0.16955328,-0.973171353,-0.170376375,0.158476076,0.160748227,-1.131074692,-2.648578956
4,0,-0.011883169,0.007196292,0.01389116,0.376901478,-0.070214309,-0.066191152,0.133220658,0.183293745,-0.973989546,-0.184335917,0.135934812,0.166199305,-1.08858441,-2.648578956
4,0,-0.011883169,0.007196292,0.01389116,0.376901478,-0.070214309,-0.066191152,0.133220658,0.183293745,-0.973989546,-0.184335917,0.135934812,0.166199305,-1.046094127,-2.648578956
4,0,0.016187817,0.034931958,-0.001657128,0.487877786,-0.004532369,-0.025864184,0.133408964,0.175440311,-0.975409031,-0.176352994,0.13592892,0.162508441,-0.991332143,-2.648578956
4,0,0.016187817,0.034931958,-0.001657128,0.487877786,-0.004532369,-0.025864184,0.133408964,0.175440311,-0.975409031,-0.176352994,0.13592892,0.162508441,-0.936570159,-2.648578956
4,0,0.016353562,0.063965619,0.029705226,0.699160576,-0.075172573,0.028413489,0.133548379,0.166410938,-0.976970971,-0.167188736,0.135854354,0.161021026,-0.882536518,-2.175781151
4,0,0.016353562,0.063965619,0.029705226,0.699160576,-0.075172573,0.028413489,0.133548379,0.166410938,-0.976970971,-0.167188736,0.135854354,0.161021026,-0.837958834,-2.175781151
4,0,0.016353562,0.063965619,0.029705226,0.699160576,-0.075172573,0.028413489,0.133548379,0.166410938,-0.976970971,-0.167188736,0.135854354,0.161021026,-0.793381149,-2.175781151
4,0,0.016353562,0.063965619,0.029705226,0.699160576,-0.075172573,0.028413489,0.133548379,0.166410938,-0.976970971,-0.167188736,0.135854354,0.161021026,-0.748803465,-1.460696492
4,0,0.015163898,-0.01527822,0.007785082,0.423393816,-0.145767674,0.039451383,0.131030157,0.155841589,-0.979052842,-0.156479398,0.13304302,0.159980192,-0.719706821,-1.460696492
4,0,0.015163898,-0.01527822,0.007785082,0.423393816,-0.145767674,0.039451383,0.131030157,0.155841589,-0.979052842,-0.156479398,0.13304302,0.159980192,-0.690610177,-1.460696492
4,0,0.015163898,-0.01527822,0.007785082,0.423393816,-0.145767674,0.039451383,0.131030157,0.155841589,-0.979052842,-0.156479398,0.13304302,0.159980192,-0.661513533,-1.247905677
4,0,-0.020532668,-0.08803381,-0.037094712,-0.008107524,-0.021386063,0.08090882,0.129190117,0.153646007,-0.979644239,-0.154257044,0.131117928,0.160676798,-0.639518151,-1.247905677
4,0,-0.020532668,-0.08803381,-0.037094712,-0.008107524,-0.021386063,0.08090882,0.129190117,0.153646007,-0.979644239,-0.154257044,0.131117928,0.160676798,-0.617522769,-1.247905677
4,0,-0.020532668,-0.08803381,-0.037094712,-0.008107524,-0.021386063,0.08090882,0.129190117,0.153646007,-0.979644239,-0.154257044,0.131117928,0.160676798,-0.598707556,-1.247905677
4,0,-0.001235738,-0.019003943,-0.019102633,-0.037511352,0.003005273,0.051521897,0.129943237,0.156759694,-0.979051173,-0.157408919,0.131952438,0.162334076,-0.579317356,-1.247905677
4,0,-0.001235738,-0.019003943,-0.019102633,-0.037511352,0.003005273,0.051521897,0.129943237,0.156759694,-0.979051173,-0.157408919,0.131952438,0.162334076,-0.555456159,-1.247905677
4,0,-0.001235738,-0.019003943,-0.019102633,-0.037511352,0.003005273,0.051521897,0.129943237,0.156759694,-0.979051173,-0.157408919,0.131952438,0.162334076,-0.531594962,-1.247905677
4,0,0.019612625,0.013761505,0.0251019,0.296780169,-0.009136951,0.057922594,0.130914927,0.157380477,-0.978822052,-0.158037504,0.132958368,0.163268171,-0.507022467,-1.247905677
4,0,0.019612625,0.013761505,0.0251019,0.296780169,-0.009136951,0.057922594,0.130914927,0.157380477,-0.978822052,-0.158037504,0.132958368,0.163268171,-0.482449972,-1.182917839
4,0,0.019612625,0.013761505,0.0251019,0.296780169,-0.009136951,0.057922594,0.130914927,0.157380477,-0.978822052,-0.158037504,0.132958368,0.163268171,-0.459177234,-1.182917839
4,0,-0.001147822,0.016746625,0.049078345,0.616791964,-0.042473603,0.007128386,0.131396428,0.148734316,-0.980108678,-0.149288236,0.1332685,0.162791197,-0.43416407,-0.950940974
4,0,-0.001147822,0.016746625,0.049078345,0.616791964,-0.042473603,0.007128386,0.131396428,0.148734316,-0.980108678,-0.149288236,0.1332685,0.162791197,-0.413790442,-0.950940974
4,0,-0.001147822,0.016746625,0.049078345,0.616791964,-0.042473603,0.007128386,0.131396428,0.148734316,-0.980108678,-0.149288236,0.1332685,0.162791197,-0.393416815,-0.950940974
4,0,-0.00090073,-0.050243825,0.008221507,0.36885184,-0.08941783,0.038312458,0.129531935,0.135219485,-0.982312143,-0.135634985,0.131107906,0.161498385,-0.37443695,-0.93345335
4,0,-0.00090073,-0.050243825,0.008221507,0.36885184,-0.08941783,0.038312458,0.129531935,0.135219485,-0.982312143,-0.135634985,0.131107906,0.161498385,-0.355806838,-0.93345335
4,0,-0.00090073,-0.050243825,0.008221507,0.36885184,-0.08941783,0.038312458,0.129531935,0.135219485,-0.982312143,-0.135634985,0.131107906,0.161498385,-0.337176726,-0.93345335
4,0,-0.005537838,-0.117233306,-0.078319013,-0.365327358,-0.017802235,0.094778821,0.127745062,0.134536207,-0.982639909,-0.1349454,0.129276876,0.16284657,-0.321351604,-0.93345335
4,0,-0.005537838,-0.117233306,-0.078319013,-0.365327358,-0.017802235,0.094778821,0.127745062,0.134536207,-0.982639909,-0.1349454,0.129276876,0.16284657,-0.305526482,-0.859725353
4,0,-0.005537838,-0.117233306,-0.078319013,-0.365327358,-0.017802235,0.094778821,0.127745062,0.134536207,-0.982639909,-0.1349454,0.129276876,0.16284657,-0.291585034,-0.859725353
4,0,-0.012628451,-0.075061813,-0.02223438,-0.512521863,0.115880564,0.023239871,0.130090222,0.145373747,-0.98078692,-0.145890719,0.13186889,0.165617421,-0.276252071,-0.859725353
4,0,-0.012628451,-0.075061813,-0.02223438,-0.512521863,0.115880564,0.023239871,0.130090222,0.145373747,-0.98078692,-0.145890719,0.13186889,0.165617421,-0.268001199,-0.859725353
4,0,-0.012628451,-0.075061813,-0.02223438,-0.512521863,0.115880564,0.023239871,0.130090222,0.145373747,-0.98078692,-0.145890719,0.13186889,0.165617421,-0.259750328,-0.859725353
4,0,0.031806499,0.01937829,0.032407403,-0.143957332,0.047835108,0.008025127,0.132240355,0.152908117,-0.979352653,-0.153510324,0.134216547,0.166617294,-0.250438668,-0.859725353
4,0,0.031806499,0.01937829,0.032407403,-0.143957332,0.047835108,0.008025127,0.132240355,0.152908117,-0.979352653,-0.153510324,0.134216547,0.166617294,-0.240424978,-0.859725353
4,0,0.031806499,0.01937829,0.032407403,-0.143957332,0.047835108,0.008025127,0.132240355,0.152908117,-0.979352653,-0.153510324,0.134216547,0.166617294,-0.230411288,-0.859725353
4,0,0.02755715,-0.019800738,0.01860106,-0.010927386,-0.027477752,0.0444846,0.132339269,0.152215883,-0.979447126,-0.152809892,0.134302948,0.167436646,-0.220989938,-0.859725353
4,0,0.02755715,-0.019800738,0.01860106,-0.010927386,-0.027477752,0.0444846,0.132339269,0.152215883,-0.979447126,-0.152809892,0.134302948,0.167436646,-0.211568587,-0.859725353
4,0,0.02755715,-0.019800738,0.01860106,-0.010927386,-0.027477752,0.0444846,0.132339269,0.152215883,-0.979447126,-0.152809892,0.134302948,0.167436646,-0.19679667,-0.859725353
4,0,-0.000502333,-0.048879907,0.020835876,-0.256458819,-0.031473462,0.027525272,0.13143754,0.150685892,-0.979805052,-0.151262046,0.133350534,0.168328435,-0.18234918,-0.859725353
4,0,-0.000502333,-0.048879907,0.020835876,-0.256458819,-0.031473462,0.027525272,0.13143754,0.150685892,-0.979805052,-0.151262046,0.133350534,0.168328435,-0.167901689,-0.859725353
4,0,-0.000502333,-0.048879907,0.020835876,-0.256458819,-0.031473462,0.027525272,0.13143754,0.150685892,-0.979805052,-0.151262046,0.133350534,0.168328435,-0.153165431,-0.859725353
4,0,0.009833083,-0.040561959,0.028225362,-0.316280812,-0.064200819,0.04917853,0.130211666,0.153384805,-0.979549885,-0.153992708,0.132155315,0.169820594,-0.139104841,-0.859725353
4,0,0.009833083,-0.040561959,0.028225362,-0.316280812,-0.064200819,0.04917853,0.130211666,0.153384805,-0.979549885,-0.153992708,0.132155315,0.169820594,-0.125044251,-0.859725353
4,0,0.009833083,-0.040561959,0.028225362,-0.316280812,-0.064200819,0.04917853,0.130211666,0.153384805,-0.979549885,-0.153992708,0.132155315,0.169820594,-0.110259546,-0.859725353
4,0,0.014909774,-0.017672509,0.033205807,-0.240546867,-0.1182537,0.057274967,0.129346371,0.158663034,-0.978823543,-0.159336391,0.13138351,0.171821941,-0.095609535,-0.859725353
4,0,0.014909774,-0.017672509,0.033205807,-0.240546867,-0.1182537,0.057274967,0.129346371,0.158663034,-0.978823543,-0.159336391,0.13138351,0.171821941,-0.080533797,-0.859725353
4,0,0.014909774,-0.017672509,0.033205807,-0.240546867,-0.1182537,0.057274967,0.129346371,0.158663034,-0.978823543,-0.159336391,0.13138351,0.171821941,-0.065458059,-0.637369978
4,0,0.016497031,-0.003281653,0.042412639,-0.103276879,-0.150700152,0.01504181,0.127942219,0.161712945,-0.978508949,-0.162426205,0.130014658,0.173230797,-0.053756703,-0.637369978
4,0,0.016497031,-0.003281653,0.042412639,-0.103276879,-0.150700152,0.01504181,0.127942219,0.161712945,-0.978508949,-0.162426205,0.130014658,0.173230797,-0.042055347,-0.637369978
4,0,0.016497031,-0.003281653,0.042412639,-0.103276879,-0.150700152,0.01504181,0.127942219,0.161712945,-0.978508949,-0.162426205,0.130014658,0.173230797,-0.030353991,-0.142197263
4,0,0.005841911,-0.00659515,0.022315264,-0.018025337,-0.167715043,0.002175652,0.125154316,0.161410093,-0.978919387,-0.162119312,0.127159632,0.17350192,-0.033019338,-0.142197263
4,0,0.005841911,-0.00659515,0.022315264,-0.018025337,-0.167715043,0.002175652,0.125154316,0.161410093,-0.978919387,-0.162119312,0.127159632,0.17350192,-0.035684685,-0.142197263
4,0,0.005841911,-0.00659515,0.022315264,-0.018025337,-0.167715043,0.002175652,0.125154316,0.161410093,-0.978919387,-0.162119312,0.127159632,0.17350192,-0.038104223,-0.142197263
4,0,-0.003938004,-0.021328539,-0.000932872,-0.115062296,-0.161077172,0.017601106,0.122193195,0.161327228,-0.979307055,-0.162035356,0.124133602,0.173856992,-0.041040285,-0.142197263
4,0,-0.003938004,-0.021328539,-0.000932872,-0.115062296,-0.161077172,0.017601106,0.122193195,0.161327228,-0.979307055,-0.162035356,0.124133602,0.173856992,-0.043248004,-0.142197263
4,0,-0.003938004,-0.021328539,-0.000932872,-0.115062296,-0.161077172,0.017601106,0.122193195,0.161327228,-0.979307055,-0.162035356,0.124133602,0.173856992,-0.045455722,-0.142197263
4,0,-0.019658901,-0.034282401,-0.000928879,-0.286728054,-0.112375639,0.010016532,0.120213881,0.164790079,-0.978975415,-0.165545177,0.122183931,0.174896477,-0.047773644,-0.142197263
4,0,-0.019658901,-0.034282401,-0.000928879,-0.286728054,-0.112375639,0.010016532,0.120213881,0.164790079,-0.978975415,-0.165545177,0.122183931,0.174896477,-0.050091566,-0.142197263
4,0,-0.019658901,-0.034282401,-0.000928879,-0.286728054,-0.112375639,0.010016532,0.120213881,0.164790079,-0.978975415,-0.165545177,0.122183931,0.174896477,-0.05123014,-0.142197263
4,0,-0.01486446,-0.022812456,-0.011472225,-0.300778717,-0.05638247,-0.026626542,0.119173102,0.170867696,-0.978060305,-0.171710254,0.12124869,0.175550626,-0.051501581,-0.142197263
4,0,-0.01486446,-0.022812456,-0.011472225,-0.300778717,-0.05638247,-0.026626542,0.119173102,0.170867696,-0.978060305,-0.171710254,0.12124869,0.175550626,-0.051773021,-0.142197263
4,0,-0.01486446,-0.022812456,-0.011472225,-0.300778717,-0.05638247,-0.026626542,0.119173102,0.170867696,-0.978060305,-0.171710254,0.12124869,0.175550626,-0.050489844,-0.142197263
4,0,-0.01183822,0.004026458,-0.026720047,-0.143374413,-0.031299837,-0.022673026,0.118771344,0.175049856,-0.977369368,-0.175956411,0.120928503,0.175659628,-0.048824899,-0.142197263
4,0,-0.01183822,0.004026458,-0.026720047,-0.143374413,-0.031299837,-0.022673026,0.118771344,0.175049856,-0.977369368,-0.175956411,0.120928503,0.175659628,-0.047159953,-0.142197263
4,0,-0.01183822,0.004026458,-0.026720047,-0.143374413,-0.031299837,-0.022673026,0.118771344,0.175049856,-0.977369368,-0.175956411,0.120928503,0.175659628,-0.046069995,-0.142197263
4,0,-0.0134103,-0.013034657,-0.029448569,-0.156074882,-0.008277004,-0.019949038,0.118359789,0.176836923,-0.977097571,-0.177771791,0.120546733,0.175572046,-0.044981969,-0.142197263
4,0,-0.0134103,-0.013034657,-0.029448569,-0.156074882,-0.008277004,-0.019949038,0.118359789,0.176836923,-0.977097571,-0.177771791,0.120546733,0.175572046,-0.043893943,-0.142197263
4,0,-0.0134103,-0.013034657,-0.029448569,-0.156074882,-0.008277004,-0.019949038,0.118359789,0.176836923,-0.977097571,-0.177771791,0.120546733,0.175572046,-0.043517214,-0.142197263
4,0,-0.01925908,-0.017360702,-0.014687955,-0.256643176,0.075399041,-0.028545883,0.118562818,0.179682836,-0.976553619,-0.180664027,0.120818119,0.175598841,-0.042911672,-0.142197263
4,0,-0.01925908,-0.017360702,-0.014687955,-0.256643176,0.075399041,-0.028545883,0.118562818,0.179682836,-0.976553619,-0.180664027,0.120818119,0.175598841,-0.04230613,-0.142197263
4,0,-0.01925908,-0.017360702,-0.014687955,-0.256643176,0.075399041,-0.028545883,0.118562818,0.179682836,-0.976553619,-0.180664027,0.120818119,0.175598841,-0.043441015,-0.142197263
4,0,-0.003971197,0.005380899,0.012235522,-0.195749998,0.090757541,-0.0559268,0.119632319,0.183293104,-0.975751877,-0.184335269,0.121996408,0.1752173,-0.043840065,-0.142197263
4,0,-0.003971197,0.005380899,0.012235522,-0.195749998,0.090757541,-0.0559268,0.119632319,0.183293104,-0.975751877,-0.184335269,0.121996408,0.1752173,-0.044239115,-0.142197263
4,0,-0.003971197,0.005380899,0.012235522,-0.195749998,0.090757541,-0.0559268,0.119632319,0.183293104,-0.975751877,-0.184335269,0.121996408,0.1752173,-0.043244402,-0.142197263
4,0,0.003127389,0.007331789,0.027971804,-0.083716638,0.080348842,-0.036158316,0.120727696,0.185782522,-0.975145996,-0.186868192,0.123177956,0.174508556,-0.042403845,-0.142197263
4,0,0.003127389,0.007331789,0.027971804,-0.083716638,0.080348842,-0.036158316,0.120727696,0.185782522,-0.975145996,-0.186868192,0.123177956,0.174508556,-0.041563288,-0.142197263
4,0,0.003127389,0.007331789,0.027971804,-0.083716638,0.080348842,-0.036158316,0.120727696,0.185782522,-0.975145996,-0.186868192,0.123177956,0.174508556,-0.03791774,-0.142197263
4,0,0.012008712,0.011200488,0.034024,0.024471324,0.018815443,-0.020336049,0.12107794,0.185743794,-0.975109935,-0.186828772,0.123536202,0.173891805,-0.034548041,-0.142197263
4,0,0.012008712,0.011200488,0.034024,0.024471324,0.018815443,-0.020336049,0.12107794,0.185743794,-0.975109935,-0.186828772,0.123536202,0.173891805,-0.031178343,-0.105938442
4,0,0.012008712,0.011200488,0.034024,0.024471324,0.018815443,-0.020336049,0.12107794,0.185743794,-0.975109935,-0.186828772,0.123536202,0.173891805,-0.02920016,-0.105938442
4,0,0.011722371,0.023207948,0.029960155,0.056784485,-0.045688942,0.010591881,0.120265618,0.18412751,-0.975516915,-0.185184121,0.122665035,0.17357791,-0.02798605,-0.105938442
4,0,0.011722371,0.023207948,0.029960155,0.056784485,-0.045688942,0.010591881,0.120265618,0.18412751,-0.975516915,-0.185184121,0.122665035,0.17357791,-0.026771939,-0.105938442
4,0,0.011722371,0.023207948,0.029960155,0.056784485,-0.045688942,0.010591881,0.120265618,0.18412751,-0.975516915,-0.185184121,0.122665035,0.17357791,-0.026618617,-0.105938442
4,0,0.004968755,0.004663929,0.021726668,0.035842944,-0.046246309,0.014571283,0.119038887,0.183109775,-0.975858867,-0.184148785,0.12138402,0.173721855,-0.026595396,-0.105938442
4,0,0.004968755,0.004663929,0.021726668,0.035842944,-0.046246309,0.014571283,0.119038887,0.183109775,-0.975858867,-0.184148785,0.12138402,0.173721855,-0.026572175,-0.105938442
4,0,0.004968755,0.004663929,0.021726668,0.035842944,-0.046246309,0.014571283,0.119038887,0.183109775,-0.975858867,-0.184148785,0.12138402,0.173721855,-0.025956614,-0.105938442
4,0,-0.004163221,0.016677603,0.021097183,0.053571779,-0.031087123,0.00104285,0.118725687,0.182601228,-0.975992322,-0.183631513,0.121051368,0.173832976,-0.024979315,-0.105938442
4,0,-0.004163221,0.016677603,0.021097183,0.053571779,-0.031087123,0.00104285,0.118725687,0.182601228,-0.975992322,-0.183631513,0.121051368,0.173832976,-0.024002016,-0.105938442
4,0,-0.004163221,0.016677603,0.021097183,0.053571779,-0.031087123,0.00104285,0.118725687,0.182601228,-0.975992322,-0.183631513,0.121051368,0.173832976,-0.022700289,-0.105938442
4,0,0.002994649,-0.001863867,-0.012363434,-0.039101858,0.014891796,0.008136339,0.118769966,0.18272534,-0.975963712,-0.183757755,0.121099591,0.173911789,-0.021589159,-0.105938442
4,0,0.002994649,-0.001863867,-0.012363434,-0.039101858,0.014891796,0.008136339,0.118769966,0.18272534,-0.975963712,-0.183757755,0.121099591,0.173911789,-0.020478028,-0.105938442
4,0,0.002994649,-0.001863867,-0.012363434,-0.039101858,0.014891796,0.008136339,0.118769966,0.18272534,-0.975963712,-0.183757755,0.121099591,0.173911789,-0.01869123,-0.105938442
4,0,-0.012723111,-0.005267665,-0.019217789,-0.051785443,0.029278543,0.00689259,0.11976295,0.184206486,-0.975563824,-0.185264471,0.122151612,0.174359773,-0.016857812,-0.105938442
4,0,-0.012723111,-0.005267665,-0.019217789,-0.051785443,0.029278543,0.00689259,0.11976295,0.184206486,-0.975563824,-0.185264471,0.122151612,0.174359773,-0.015024395,-0.105938442
4,0,-0.012723111,-0.005267665,-0.019217789,-0.051785443,0.029278543,0.00689259,0.11976295,0.184206486,-0.975563824,-0.185264471,0.122151612,0.174359773,-0.013056283,-0.105938442
4,0,-0.007202953,-0.003110215,-0.001226604,-0.014234006,0.040300846,0.026731808,0.120651484,0.185314417,-0.975244462,-0.186391806,0.123088671,0.174802548,-0.011343896,-0.105938442
4,0,-0.007202953,-0.003110215,-0.001226604,-0.014234006,0.040300846,0.026731808,0.120651484,0.185314417,-0.975244462,-0.186391806,0.123088671,0.174802548,-0.009631508,-0.062793021
4,0,-0.007202953,-0.003110215,-0.001226604,-0.014234006,0.040300846,0.026731808,0.120651484,0.185314417,-0.975244462,-0.186391806,0.123088671,0.174802548,-0.008991846,-0.062793021
4,0,-0.007811248,-0.006628573,0.007933915,0.019906547,0.034238186,0.028679485,0.121397108,0.185201183,-0.975173473,-0.186276587,0.12385055,0.175350263,-0.008330001,-0.062793021
4,0,-0.007811248,-0.006628573,0.007933915,0.019906547,0.034238186,0.028679485,0.121397108,0.185201183,-0.975173473,-0.186276587,0.12385055,0.175350263,-0.007668156,-0.062793021
4,0,-0.007811248,-0.006628573,0.007933915,0.019906547,0.034238186,0.028679485,0.121397108,0.185201183,-0.975173473,-0.186276587,0.12385055,0.175350263,-0.007423221,-0.062793021
4,0,-0.007743806,-0.020860821,0.010182142,-0.05073119,0.015837023,0.019508943,0.121985763,0.185349524,-0.975071788,-0.186427539,0.124457779,0.175945788,-0.007239603,-0.062793021
4,0,-0.007743806,-0.020860821,0.010182142,-0.05073119,0.015837023,0.019508943,0.121985763,0.185349524,-0.975071788,-0.186427539,0.124457779,0.175945788,-0.007055985,-0.062793021
4,0,-0.007743806,-0.020860821,0.010182142,-0.05073119,0.015837023,0.019508943,0.121985763,0.185349524,-0.975071788,-0.186427539,0.124457779,0.175945788,-0.006355842,-0.062793021
4,0,0.00336282,-0.020350263,0.017191112,-0.071361504,0.043128274,0.000698504,0.12223164,0.186441079,-0.974832892,-0.187538451,0.124736297,0.176220607,-0.005237438,-0.062793021
4,0,0.00336282,-0.020350263,0.017191112,-0.071361504,0.043128274,0.000698504,0.12223164,0.186441079,-0.974832892,-0.187538451,0.124736297,0.176220607,-0.002890428,-0.062793021
4,0,0.003796957,-0.009578496,0.027628124,0.059440069,0.01236333,-0.006621674,0.122651987,0.186564073,-0.974756539,-0.187663648,0.125170498,0.176130277,-0.001313537,-0.062793021
4,0,0.003796957,-0.009578496,0.027628124,0.059440069,0.01236333,-0.006621674,0.122651987,0.186564073,-0.974756539,-0.187663648,0.125170498,0.176130277,0.000263353,0.047787885
4,0,0.003796957,-0.009578496,0.027628124,0.059440069,0.01236333,-0.006621674,0.122651987,0.186564073,-0.974756539,-0.187663648,0.125170498,0.176130277,0.00097311,0.047787885
4,0,0.010148533,-0.002317131,0.005747259,0.108680174,-0.008176409,0.029567437,0.122419193,0.184551775,-0.975168824,-0.185615777,0.124883119,0.176035936,0.001021083,0.047787885
4,0,0.010148533,-0.002317131,0.005747259,0.108680174,-0.008176409,0.029567437,0.122419193,0.184551775,-0.975168824,-0.185615777,0.124883119,0.176035936,0.001069055,0.047787885
4,0,0.010148533,-0.002317131,0.005747259,0.108680174,-0.008176409,0.029567437,0.122419193,0.184551775,-0.975168824,-0.185615777,0.124883119,0.176035936,0.00073526,0.047787885
4,0,-0.005648896,-0.016454041,-0.001449585,-0.01145139,-0.000632848,0.044348404,0.122225419,0.183033153,-0.975479245,-0.184070847,0.124648212,0.176625861,-0.000153311,-0.04477643
4,0,-0.005648896,-0.016454041,-0.001449585,-0.01145139,-0.000632848,0.044348404,0.122225419,0.183033153,-0.975479245,-0.184070847,0.124648212,0.176625861,-0.001041882,-0.04477643
4,0,-0.005648896,-0.016454041,-0.001449585,-0.01145139,-0.000632848,0.044348404,0.122225419,0.183033153,-0.975479245,-0.184070847,0.124648212,0.176625861,-0.001928521,-0.04477643
4,0,-0.002090022,-0.018801048,0.013542891,-0.085663542,0.048681222,0.023546828,0.122984745,0.184022084,-0.975197732,-0.185076859,0.125450348,0.177547638,-0.002410424,-0.04477643
4,0,-0.002090022,-0.018801048,0.013542891,-0.085663542,0.048681222,0.023546828,0.122984745,0.184022084,-0.975197732,-0.185076859,0.125450348,0.177547638,-0.002892328,-0.04477643
4,0,-0.002090022,-0.018801048,0.013542891,-0.085663542,0.048681222,0.023546828,0.122984745,0.184022084,-0.975197732,-0.185076859,0.125450348,0.177547638,-0.003603045,-0.04477643
4,0,0.008625045,0.025256589,0.027730227,0.092469014,0.035466593,0.016834222,0.124064691,0.184123337,-0.975041807,-0.185179878,0.126560295,0.177946312,-0.003791203,-0.04477643
4,0,0.008625045,0.025256589,0.027730227,0.092469014,0.035466593,0.016834222,0.124064691,0.184123337,-0.975041807,-0.185179878,0.126560295,0.177946312,-0.00397936,-0.04477643
5,0,0.008625045,0.025256589,0.027730227,0.092469014,0.035466593,0.016834222,0.124064691,0.184123337,-0.975041807,-0.185179878,0.126560295,0.177946312,-0.004903352,-0.04477643
5,0,0.005410001,0.0310027,0.031751394,0.366721541,0.022257786,0.028048687,0.124807827,0.17964378,-0.975782335,-0.180624323,0.127214667,0.177886983,-0.005411134,-0.04477643
5,0,0.005410001,0.0310027,0.031751394,0.366721541,0.022257786,0.028048687,0.124807827,0.17964378,-0.975782335,-0.180624323,0.127214667,0.177886983,-0.005918916,-0.04477643
5,0,0.005410001,0.0310027,0.031751394,0.366721541,0.022257786,0.028048687,0.124807827,0.17964378,-0.975782335,-0.180624323,0.127214667,0.177886983,-0.006272543,-0.04477643
5,0,-0.003658935,0.032340974,0.022577345,0.562734127,-0.002646233,0.045990404,0.125041932,0.170035273,-0.977472484,-0.170865471,0.127232708,0.177188129,-0.006574925,-0.04477643
5,0,-0.003658935,0.032340974,0.022577345,0.562734127,-0.002646233,0.045990404,0.125041932,0.170035273,-0.977472484,-0.170865471,0.127232708,0.177188129,-0.006877306,-0.04477643
5,0,-0.003658935,0.032340974,0.022577345,0.562734127,-0.002646233,0.045990404,0.125041932,0.170035273,-0.977472484,-0.170865471,0.127232708,0.177188129,-0.006903838,-0.04477643
5,0,0.011007145,0.016046599,0.026408672,0.673586905,0.015370232,0.113565773,0.12526843,0.158116236,-0.979442239,-0.158782594,0.127207106,0.177440869,-0.007918025,-0.04477643
5,0,0.011007145,0.016046599,0.026408672,0.673586905,0.015370232,0.113565773,0.12526843,0.158116236,-0.979442239,-0.158782594,0.127207106,0.177440869,-0.008932212,-0.04477643
5,0,0.011007145,0.016046599,0.026408672,0.673586905,0.015370232,0.113565773,0.12526843,0.158116236,-0.979442239,-0.158782594,0.127207106,0.177440869,-0.009182326,-0.04477643
5,0,0.022270128,0.075510308,0.052502632,1.239290357,0.055299431,0.085402094,0.126441374,0.141117856,-0.981885076,-0.141590477,0.128069298,0.177184639,-0.007331082,-0.04477643
5,0,0.022270128,0.075510308,0.052502632,1.239290357,0.055299431,0.085402094,0.126441374,0.141117856,-0.981885076,-0.141590477,0.128069298,0.177184639,-0.005479838,-0.04477643
5,0,0.022270128,0.075510308,0.052502632,1.239290357,0.055299431,0.085402094,0.126441374,0.141117856,-0.981885076,-0.141590477,0.128069298,0.177184639,-0.003498493,-0.04477643
5,0,0.013672858,0.19504115,0.068644702,3.121538877,-0.076864041,-0.005779156,0.126814127,0.100749806,-0.986796677,-0.100921035,0.127810371,0.172991784,0.004746207,0.393814043
5,0,0.013672858,0.19504115,0.068644702,3.121538877,-0.076864041,-0.005779156,0.126814127,0.100749806,-0.986796677,-0.100921035,0.127810371,0.172991784,0.012990907,0.393814043
5,0,0.013672858,0.19504115,0.068644702,3.121538877,-0.076864041,-0.005779156,0.126814127,0.100749806,-0.986796677,-0.100921035,0.127810371,0.172991784,0.020873868,0.393814043
5,0,0.029744476,0.325529337,0.053362787,6.52274847,-0.367059112,-0.14176549,0.122171335,0.007554609,-0.992480278,-0.007554681,0.122480826,0.159789181,0.039576935,0.934819353
5,0,0.029744476,0.325529337,0.053362787,6.52274847,-0.367059112,-0.14176549,0.122171335,0.007554609,-0.992480278,-0.007554681,0.122480826,0.159789181,0.058280003,0.934819353
5,0,0.029744476,0.325529337,0.053362787,6.52274847,-0.367059112,-0.14176549,0.122171335,0.007554609,-0.992480278,-0.007554681,0.122480826,0.159789181,0.077173665,0.934819353
5,0,-0.009763971,0.442050636,0.168622911,10.96826744,-0.409607589,-0.481927216,0.114820063,-0.163393751,-0.979856551,0.164129665,0.116648516,0.133625997,0.113341422,1.79852402
5,0,-0.009763971,0.442050636,0.168622911,10.96826744,-0.409607589,-0.481927216,0.114820063,-0.163393751,-0.979856551,0.164129665,0.116648516,0.133625997,0.149509178,1.79852402
5,0,-0.009763971,0.442050636,0.168622911,10.96826744,-0.409607589,-0.481927216,0.114820063,-0.163393751,-0.979856551,0.164129665,0.116648516,0.133625997,0.185630315,1.79852402
5,0,0.011803254,0.487442583,0.250009835,16.06985855,-0.602319837,-1.308102846,0.111029372,-0.41634956,-0.902399898,0.429426636,0.122422603,0.081888291,0.250089647,3.21543377
5,0,0.011803254,0.487442583,0.250009835,16.06985855,-0.602319837,-1.308102846,0.111029372,-0.41634956,-0.902399898,0.429426636,0.122422603,0.081888291,0.31454898,3.21543377
5,0,0.011803254,0.487442583,0.250009835,16.06985855,-0.602319837,-1.308102846,0.111029372,-0.41634956,-0.902399898,0.429426636,0.122422603,0.081888291,0.379264036,3.21543377
5,0,0.014935926,0.332998574,0.392780304,20.89438057,-0.87857151,-2.059936285,0.118333645,-0.712526143,-0.691594958,0.793091932,0.169461512,-0.02461616,0.470133517,4.523154935
5,0,0.014935926,0.332998574,0.392780304,20.89438057,-0.87857151,-2.059936285,0.118333645,-0.712526143,-0.691594958,0.793091932,0.169461512,-0.02461616,0.561002997,4.523154935
5,0,0.014935926,0.332998574,0.392780304,20.89438057,-0.87857151,-2.059936285,0.118333645,-0.712526143,-0.691594958,0.793091932,0.169461512,-0.02461616,0.651850294,4.523154935
5,0,-0.047713488,-0.010989606,0.859593987,22.85369492,-0.888676941,-2.546529293,0.147413522,-0.935339391,-0.321573228,1.209217304,0.429828576,-0.34848733,0.752615569,5.019053852
5,0,-0.047713488,-0.010989606,0.859593987,22.85369492,-0.888676941,-2.546529293,0.147413522,-0.935339391,-0.321573228,1.209217304,0.429828576,-0.34848733,0.853380845,5.019053852
5,0,-0.001868099,-0.266075432,0.639476299,18.08149338,-0.794146776,-2.717537165,0.197469205,-0.976776779,0.083142117,1.354862643,1.96930667,-1.942118434,0.936232368,5.019053852
5,0,-0.001868099,-0.266075432,0.639476299,18.08149338,-0.794146776,-2.717537165,0.197469205,-0.976776779,0.083142117,1.354862643,1.96930667,-1.942118434,1.019083892,5.019053852
5,0,-0.001868099,-0.266075432,0.639476299,18.08149338,-0.794146776,-2.717537165,0.197469205,-0.976776779,0.083142117,1.354862643,1.96930667,-1.942118434,1.101935415,5.019053852
5,0,-0.001868099,-0.266075432,0.639476299,18.08149338,-0.794146776,-2.717537165,0.197469205,-0.976776779,0.083142117,1.354862643,1.96930667,-1.942118434,1.184368678,5.019053852
5,0,0.204936028,-0.799888253,0.543308973,10.70171165,0.213117033,-2.309302092,0.248309404,-0.904161274,0.347612053,1.129412296,2.521314429,-2.53184248,1.217633976,5.019053852
5,0,0.026249826,-0.921958983,-0.301129699,2.041498899,-0.316895694,-1.436633706,0.281334966,-0.842348039,0.459673911,1.001625276,2.592373312,-2.61580008,1.221279199,5.019053852
5,0,0.026249826,-0.921958983,-0.301129699,2.041498899,-0.316895694,-1.436633706,0.281334966,-0.842348039,0.459673911,1.001625276,2.592373312,-2.61580008,1.224576137,5.019053852
5,0,0.149523765,-0.572258711,-0.234845161,-1.324013233,-0.923980474,-1.37955308,0.310541928,-0.833711028,0.456606746,0.985794371,2.544342125,-2.570773064,1.218840264,5.019053852
5,0,0.149523765,-0.572258711,-0.234845161,-1.324013233,-0.923980474,-1.37955308,0.310541928,-0.833711028,0.456606746,0.985794371,2.544342125,-2.570773064,1.213104391,5.019053852
5,0,0.149523765,-0.572258711,-0.234845161,-1.324013233,-0.923980474,-1.37955308,0.310541928,-0.833711028,0.456606746,0.985794371,2.544342125,-2.570773064,1.208030301,5.019053852
5,0,-0.009683013,0.267660379,0.113822937,0.014360301,-1.291149616,-0.686555624,0.33801946,-0.835617483,0.432997167,0.98925589,2.478762056,-2.520966748,1.224100747,5.019053852
5,0,-0.009683013,0.267660379,0.113822937,0.014360301,-1.291149616,-0.686555624,0.33801946,-0.835617483,0.432997167,0.98925589,2.478762056,-2.520966748,1.240171193,5.019053852
5,0,-0.009683013,0.267660379,0.113822937,0.014360301,-1.291149616,-0.686555624,0.33801946,-0.835617483,0.432997167,0.98925589,2.478762056,-2.520966748,1.256796413,5.019053852
5,0,-0.286061347,0.262173772,0.066916943,1.728270888,-0.617188334,-0.230671495,0.354296386,-0.823310316,0.443434417,0.967218771,2.467472391,-2.531990417,1.278055341,5.019053852
5,0,-0.286061347,0.262173772,0.066916943,1.728270888,-0.617188334,-0.230671495,0.354296386,-0.823310316,0.443434417,0.967218771,2.467472391,-2.531990417,1.29931427,5.019053852
5,0,-0.286061347,0.262173772,0.066916943,1.728270888,-0.617188334,-0.230671495,0.354296386,-0.823310316,0.443434417,0.967218771,2.467472391,-2.531990417,1.320168463,5.019053852
5,0,-0.090151638,-0.054151893,-0.204928756,1.184114933,-0.452861279,0.016894039,0.359711111,-0.808162749,0.466348112,0.941025939,2.484575732,-2.563013954,1.336655325,5.019053852
5,0,-0.090151638,-0.054151893,-0.204928756,1.184114933,-0.452861279,0.016894039,0.359711111,-0.808162749,0.466348112,0.941025939,2.484575732,-2.563013954,1.353142188,5.019053852
5,0,-0.090151638,-0.054151893,-0.204928756,1.184114933,-0.452861279,0.016894039,0.359711111,-0.808162749,0.466348112,0.941025939,2.484575732,-2.563013954,1.36910649,5.019053852
5,0,0.104184955,-0.018922627,-0.196068168,-0.151509926,-0.853223264,0.118953243,0.364898384,-0.804146349,0.46925199,0.934238023,2.480649597,-2.575340488,1.382807718,5.019053852
5,0,0.104184955,-0.018922627,-0.196068168,-0.151509926,-0.853223264,0.118953243,0.364898384,-0.804146349,0.46925199,0.934238023,2.480649597,-2.575340488,1.396508946,5.019053852
5,0,0.104184955,-0.018922627,-0.196068168,-0.151509926,-0.853223264,0.118953243,0.364898384,-0.804146349,0.46925199,0.934238023,2.480649597,-2.575340488,1.409793964,5.019053852
5,0,-0.019021451,-0.028015316,-0.040865898,-0.794768155,-0.582540095,0.172028452,0.369513482,-0.810175121,0.45505634,0.944450792,2.459567113,-2.567925877,1.41447728,5.019053852
5,0,-0.019021451,-0.028015316,-0.040865898,-0.794768155,-0.582540095,0.172028452,0.369513482,-0.810175121,0.45505634,0.944450792,2.459567113,-2.567925877,1.419160596,5.019053852
5,0,-0.019021451,-0.028015316,-0.040865898,-0.794768155,-0.582540095,0.172028452,0.369513482,-0.810175121,0.45505634,0.944450792,2.459567113,-2.567925877,1.423792667,5.019053852
5,0,-0.03147912,-0.02701354,0.085754395,-0.374394953,-0.189088061,0.185897872,0.370313436,-0.817112505,0.44180879,0.956384253,2.444003331,-2.557952955,1.425253327,5.019053852
5,0,-0.03147912,-0.02701354,0.085754395,-0.374394953,-0.189088061,0.185897872,0.370313436,-0.817112505,0.44180879,0.956384253,2.444003331,-2.557952955,1.426713987,5.019053852
5,0,-0.03147912,-0.02701354,0.085754395,-0.374394953,-0.189088061,0.185897872,0.370313436,-0.817112505,0.44180879,0.956384253,2.444003331,-2.557952955,1.429162301,5.019053852
5,0,-0.010430306,0.105048895,0.066644073,0.194088981,-0.041184753,0.244249791,0.36755991,-0.819460034,0.439755231,0.960468223,2.445383702,-2.562522032,1.433900708,5.019053852
5,0,-0.010430306,0.105048895,0.066644073,0.194088981,-0.041184753,0.244249791,0.36755991,-0.819460034,0.439755231,0.960468223,2.445383702,-2.562522032,1.438639116,5.019053852
5,0,-0.010430306,0.105048895,0.066644073,0.194088981,-0.041184753,0.244249791,0.36755991,-0.819460034,0.439755231,0.960468223,2.445383702,-2.562522032,1.441276164,5.019053852
5,0,-0.028647244,0.081728339,-0.021585226,0.367969841,0.07881318,0.281864882,0.362980247,-0.818707108,0.444930941,0.959155837,2.457284002,-2.576336363,1.443552265,5.019053852
5,0,-0.028647244,0.081728339,-0.021585226,0.367969841,0.07881318,0.281864882,0.362980247,-0.818707108,0.444930941,0.959155837,2.457284002,-2.576336363,1.445828365,5.019053852
5,0,-0.028647244,0.081728339,-0.021585226,0.367969841,0.07881318,0.281864882,0.362980247,-0.818707108,0.444930941,0.959155837,2.457284002,-2.576336363,1.44184111,5.019053852
5,0,-0.011262536,-0.058658838,-0.115298629,0.022095278,0.064937718,0.4043594,0.356765002,-0.818975508,0.449441344,0.959623356,2.470645763,-2.59071598,1.436693554,5.019053852
5,0,-0.011262536,-0.058658838,-0.115298629,0.022095278,0.064937718,0.4043594,0.356765002,-0.818975508,0.449441344,0.959623356,2.470645763,-2.59071598,1.431545998,5.019053852
5,0,-0.011262536,-0.058658838,-0.115298629,0.022095278,0.064937718,0.4043594,0.356765002,-0.818975508,0.449441344,0.959623356,2.470645763,-2.59071598,1.415578336,5.019053852
5,0,0.02541545,-0.06848824,-0.129697323,-0.190308958,-0.136804745,0.379456103,0.350345165,-0.823184013,0.446795791,0.966996306,2.476604863,-2.598943443,1.40119157,5.019053852
5,0,0.02541545,-0.06848824,-0.129697323,-0.190308958,-0.136804745,0.379456103,0.350345165,-0.823184013,0.446795791,0.966996306,2.476604863,-2.598943443,1.386804804,5.019053852
5,0,0.02541545,-0.06848824,-0.129697323,-0.190308958,-0.136804745,0.379456103,0.350345165,-0.823184013,0.446795791,0.966996306,2.476604863,-2.598943443,1.355143944,5.019053852
5,0,-0.00190267,0.125801325,-0.082776546,-0.170936972,-0.08137057,0.45728755,0.345009506,-0.827349007,0.443240643,0.974371503,2.480174558,-2.606269233,1.323394172,5.019053852
5,0,-0.00190267,0.125801325,-0.082776546,-0.170936972,-0.08137057,0.45728755,0.345009506,-0.827349007,0.443240643,0.974371503,2.480174558,-2.606269233,1.2916444,5.019053852
5,0,-0.00190267,0.125801325,-0.082776546,-0.170936972,-0.08137057,0.45728755,0.345009506,-0.827349007,0.443240643,0.974371503,2.480174558,-2.606269233,1.231556432,5.019053852
5,0,0.012803614,-0.060891628,-0.023550987,-0.088379368,0.076289475,0.478463739,0.337841004,-0.830582023,0.442715168,0.980151943,2.489752908,-2.617424496,1.169619763,5.019053852
5,0,0.012803614,-0.060891628,-0.023550987,-0.088379368,0.076289475,0.478463739,0.337841004,-0.830582023,0.442715168,0.980151943,2.489752908,-2.617424496,1.107683094,5.019053852
5,0,0.012803614,-0.060891628,-0.023550987,-0.088379368,0.076289475,0.478463739,0.337841004,-0.830582023,0.442715168,0.980151943,2.489752908,-2.617424496,1.019592002,5.019053852
5,0,0.097687066,-0.095591187,0.020982981,-0.123243682,-0.084303543,0.519740283,0.329846889,-0.835494816,0.439487755,0.989032679,2.497755132,-2.627669675,0.934292965,5.019053852
5,0,0.097687066,-0.095591187,0.020982981,-0.123243682,-0.084303543,0.519740283,0.329846889,-0.835494816,0.439487755,0.989032679,2.497755132,-2.627669675,0.848993929,5.019053852
5,0,0.097687066,-0.095591187,0.020982981,-0.123243682,-0.084303543,0.519740283,0.329846889,-0.835494816,0.439487755,0.989032679,2.497755132,-2.627669675,0.753776914,5.019053852
5,0,0.064576626,-0.083487988,0.131002545,-0.05593602,-0.194347754,0.327241421,0.324322045,-0.840334594,0.434341401,0.99790018,2.500207901,-2.635617888,0.659142044,4.120300454
5,0,0.064576626,-0.083487988,0.131002545,-0.05593602,-0.194347754,0.327241421,0.324322045,-0.840334594,0.434341401,0.99790018,2.500207901,-2.635617888,0.582482242,4.120300454
5,0,-0.011248648,0.054938197,0.111365557,0.084260285,-0.195423052,0.154849619,0.323899209,-0.841645539,0.432113051,1.000323109,2.49836643,-2.639590231,0.50524986,4.120300454
5,0,-0.011248648,0.054938197,0.111365557,0.084260285,-0.195423052,0.154849619,0.323899209,-0.841645539,0.432113051,1.000323109,2.49836643,-2.639590231,0.428017477,4.120300454
5,0,-0.011248648,0.054938197,0.111365557,0.084260285,-0.195423052,0.154849619,0.323899209,-0.841645539,0.432113051,1.000323109,2.49836643,-2.639590231,0.350785094,1.661902229
5,0,-0.011248648,0.054938197,0.111365557,0.084260285,-0.195423052,0.154849619,0.323899209,-0.841645539,0.432113051,1.000323109,2.49836643,-2.639590231,0.322720676,1.018169973
5,0,-0.030872196,0.005514324,0.075664997,0.228453338,-0.138241395,0.071903013,0.323747486,-0.840882182,0.433710545,0.998911129,2.500361147,-2.646001107,0.323530527,1.018169973
5,0,-0.030872196,0.005514324,0.075664997,0.228453338,-0.138241395,0.071903013,0.323747486,-0.840882182,0.433710545,0.998911129,2.500361147,-2.646001107,0.324340379,1.018169973
5,0,-0.030872196,0.005514324,0.075664997,0.228453338,-0.138241395,0.071903013,0.323747486,-0.840882182,0.433710545,0.998911129,2.500361147,-2.646001107,0.334183042,1.018169973
5,0,0.020014465,-0.157178521,0.003584027,-0.052101359,-0.270033777,0.038416427,0.325396866,-0.840237796,0.433724523,0.997721676,2.497938858,-2.648355987,0.344129907,1.018169973
5,0,0.020014465,-0.157178521,0.003584027,-0.052101359,-0.270033777,0.038416427,0.325396866,-0.840237796,0.433724523,0.997721676,2.497938858,-2.648355987,0.354076773,1.018169973
5,0,0.020014465,-0.157178521,0.003584027,-0.052101359,-0.270033777,0.038416427,0.325396866,-0.840237796,0.433724523,0.997721676,2.497938858,-2.648355987,0.342879103,1.018169973
5,0,0.036424398,-0.116688073,0.030788064,-0.326773852,-0.433500141,-0.094864823,0.329403222,-0.841391206,0.428432316,0.999852315,2.486131851,-2.643008611,0.331478604,1.018169973
5,0,0.036424398,-0.116688073,0.030788064,-0.326773852,-0.433500141,-0.094864823,0.329403222,-0.841391206,0.428432316,0.999852315,2.486131851,-2.643008611,0.320078106,1.018169973
5,0,0.036424398,-0.116688073,0.030788064,-0.326773852,-0.433500141,-0.094864823,0.329403222,-0.841391206,0.428432316,0.999852315,2.486131851,-2.643008611,0.3040439,1.018169973
5,0,-0.034276038,-0.03706044,0.062358379,-0.230192736,-0.296378076,-0.231769517,0.335803092,-0.842695355,0.420833588,1.002270045,2.468104527,-2.630920812,0.285178913,1.018169973
5,0,-0.034276038,-0.03706044,0.062358379,-0.230192736,-0.296378076,-0.231769517,0.335803092,-0.842695355,0.420833588,1.002270045,2.468104527,-2.630920812,0.266313925,0.799803417
5,0,-0.034276038,-0.03706044,0.062358379,-0.230192736,-0.296378076,-0.231769517,0.335803092,-0.842695355,0.420833588,1.002270045,2.468104527,-2.630920812,0.251816269,0.799803417
5,0,-0.057755888,-0.049218833,0.058189511,-0.007242517,-0.127759412,-0.213132605,0.341185927,-0.842057288,0.4177697,1.001086107,2.456760847,-2.622145713,0.236141587,0.799803417
5,0,-0.057755888,-0.049218833,0.058189511,-0.007242517,-0.127759412,-0.213132605,0.341185927,-0.842057288,0.4177697,1.001086107,2.456760847,-2.622145713,0.220466906,0.686649692
5,0,-0.057755888,-0.049218833,0.058189511,-0.007242517,-0.127759412,-0.213132605,0.341185927,-0.842057288,0.4177697,1.001086107,2.456760847,-2.622145713,0.207055299,0.686649692
5,0,-0.0157502,0.021180451,-0.015648007,0.014460435,-0.103074737,-0.239380777,0.34591797,-0.84038955,0.417236149,0.998001561,2.449375742,-2.615984389,0.193157241,0.686649692
