gravityX,gravityY,gravityZ,accelX,accelY,accelZ,rotRateX,rotRatY,rotRateZ,attPitch,attRoll,attYaw
-0.948301852,-0.221672162,-0.227124035,0.000273228,0.094291776,-0.045642018,-0.052932862,0.15224874,0.058284082,0.223528964,-1.335718441,0.176591627
-0.948301852,-0.221672162,-0.227124035,0.000273228,0.094291776,-0.045642018,-0.052932862,0.15224874,0.058284082,0.223528964,-1.335718441,0.176591627
-0.948301852,-0.221672162,-0.227124035,0.000273228,0.094291776,-0.045642018,-0.052932862,0.15224874,0.058284082,0.223528964,-1.335718441,0.176591627
-0.948301852,-0.221672162,-0.227124035,0.000273228,0.094291776,-0.045642018,-0.052932862,0.15224874,0.058284082,0.223528964,-1.335718441,0.176591627
-0.948301852,-0.221672162,-0.227124035,0.000273228,0.094291776,-0.045642018,-0.052932862,0.15224874,0.058284082,0.223528964,-1.335718441,0.176591627
-0.948301852,-0.221672162,-0.227124035,0.000273228,0.094291776,-0.045642018,-0.052932862,0.15224874,0.058284082,0.223528964,-1.335718441,0.176591627
-0.947694361,-0.218256846,-0.232893765,-0.001814783,0.030390516,-0.004578471,-0.017721836,0.145383239,0.073898889,0.220027891,-1.329823767,0.174964763
-0.947694361,-0.218256846,-0.232893765,-0.001814783,0.030390516,-0.004578471,-0.017721836,0.145383239,0.073898889,0.220027891,-1.329823767,0.174964763
-0.947694361,-0.218256846,-0.232893765,-0.001814783,0.030390516,-0.004578471,-0.017721836,0.145383239,0.073898889,0.220027891,-1.329823767,0.174964763
-0.947694361,-0.218256846,-0.232893765,-0.001814783,0.030390516,-0.004578471,-0.017721836,0.145383239,0.073898889,0.220027891,-1.329823767,0.174964763
-0.947694361,-0.218256846,-0.232893765,-0.001814783,0.030390516,-0.004578471,-0.017721836,0.145383239,0.073898889,0.220027891,-1.329823767,0.174964763
-0.947694361,-0.218256846,-0.232893765,-0.001814783,0.030390516,-0.004578471,-0.017721836,0.145383239,0.073898889,0.220027891,-1.329823767,0.174964763
-0.947694361,-0.218256846,-0.232893765,-0.001814783,0.030390516,-0.004578471,-0.017721836,0.145383239,0.073898889,0.220027891,-1.329823767,0.174964763
-0.947694361,-0.218256846,-0.232893765,-0.001814783,0.030390516,-0.004578471,-0.017721836,0.145383239,0.073898889,0.220027891,-1.329823767,0.174964763
-0.947694361,-0.218256846,-0.232893765,-0.001814783,0.030390516,-0.004578471,-0.017721836,0.145383239,0.073898889,0.220027891,-1.329823767,0.174964763
-0.947694361,-0.218256846,-0.232893765,-0.001814783,0.030390516,-0.004578471,-0.017721836,0.145383239,0.073898889,0.220027891,-1.329823767,0.174964763
-0.947694361,-0.218256846,-0.232893765,-0.001814783,0.030390516,-0.004578471,-0.017721836,0.145383239,0.073898889,0.220027891,-1.329823767,0.174964763
-0.947694361,-0.218256846,-0.232893765,-0.001814783,0.030390516,-0.004578471,-0.017721836,0.145383239,0.073898889,0.220027891,-1.329823767,0.174964763
-0.947694361,-0.218256846,-0.232893765,-0.001814783,0.030390516,-0.004578471,-0.017721836,0.145383239,0.073898889,0.220027891,-1.329823767,0.174964763
-0.947694361,-0.218256846,-0.232893765,-0.001814783,0.030390516,-0.004578471,-0.017721836,0.145383239,0.073898889,0.220027891,-1.329823767,0.174964763
-0.947694361,-0.218256846,-0.232893765,-0.001814783,0.030390516,-0.004578471,-0.017721836,0.145383239,0.073898889,0.220027891,-1.329823767,0.174964763
-0.947694361,-0.218256846,-0.232893765,-0.001814783,0.030390516,-0.004578471,-0.017721836,0.145383239,0.073898889,0.220027891,-1.329823767,0.174964763
-0.947694361,-0.218256846,-0.232893765,-0.001814783,0.030390516,-0.004578471,-0.017721836,0.145383239,0.073898889,0.220027891,-1.329823767,0.174964763
-0.947694361,-0.218256846,-0.232893765,-0.001814783,0.030390516,-0.004578471,-0.017721836,0.145383239,0.073898889,0.220027891,-1.329823767,0.174964763
-0.94742471,-0.216918081,-0.235230133,0.009603381,0.04960525,-0.003340364,0.190418422,0.023479372,0.043629024,0.218656262,-1.32743364,0.178699839
-0.94742471,-0.216918081,-0.235230133,0.009603381,0.04960525,-0.003340364,0.190418422,0.023479372,0.043629024,0.218656262,-1.32743364,0.178699839
-0.94742471,-0.216918081,-0.235230133,0.009603381,0.04960525,-0.003340364,0.190418422,0.023479372,0.043629024,0.218656262,-1.32743364,0.178699839
-0.94742471,-0.216918081,-0.235230133,0.009603381,0.04960525,-0.003340364,0.190418422,0.023479372,0.043629024,0.218656262,-1.32743364,0.178699839
-0.94742471,-0.216918081,-0.235230133,0.009603381,0.04960525,-0.003340364,0.190418422,0.023479372,0.043629024,0.218656262,-1.32743364,0.178699839
-0.94742471,-0.216918081,-0.235230133,0.009603381,0.04960525,-0.003340364,0.190418422,0.023479372,0.043629024,0.218656262,-1.32743364,0.178699839
-0.94742471,-0.216918081,-0.235230133,0.009603381,0.04960525,-0.003340364,0.190418422,0.023479372,0.043629024,0.218656262,-1.32743364,0.178699839
-0.947388172,-0.21924071,-0.233215183,0.007720649,0.071169242,0.011230946,0.560701251,0.035995673,0.001614887,0.221036176,-1.32942895,0.193719293
-0.947388172,-0.21924071,-0.233215183,0.007720649,0.071169242,0.011230946,0.560701251,0.035995673,0.001614887,0.221036176,-1.32942895,0.193719293
-0.947388172,-0.21924071,-0.233215183,0.007720649,0.071169242,0.011230946,0.560701251,0.035995673,0.001614887,0.221036176,-1.32942895,0.193719293
-0.947388172,-0.21924071,-0.233215183,0.007720649,0.071169242,0.011230946,0.560701251,0.035995673,0.001614887,0.221036176,-1.32942895,0.193719293
-0.947388172,-0.21924071,-0.233215183,0.007720649,0.071169242,0.011230946,0.560701251,0.035995673,0.001614887,0.221036176,-1.32942895,0.193719293
-0.947388172,-0.21924071,-0.233215183,0.007720649,0.071169242,0.011230946,0.560701251,0.035995673,0.001614887,0.221036176,-1.32942895,0.193719293
-0.947388172,-0.21924071,-0.233215183,0.007720649,0.071169242,0.011230946,0.560701251,0.035995673,0.001614887,0.221036176,-1.32942895,0.193719293
-0.947388172,-0.21924071,-0.233215183,0.007720649,0.071169242,0.011230946,0.560701251,0.035995673,0.001614887,0.221036176,-1.32942895,0.193719293
-0.947388172,-0.21924071,-0.233215183,0.007720649,0.071169242,0.011230946,0.560701251,0.035995673,0.001614887,0.221036176,-1.32942895,0.193719293
-0.947388172,-0.21924071,-0.233215183,0.007720649,0.071169242,0.011230946,0.560701251,0.035995673,0.001614887,0.221036176,-1.32942895,0.193719293
-0.947388172,-0.21924071,-0.233215183,0.007720649,0.071169242,0.011230946,0.560701251,0.035995673,0.001614887,0.221036176,-1.32942895,0.193719293
-0.947388172,-0.21924071,-0.233215183,0.007720649,0.071169242,0.011230946,0.560701251,0.035995673,0.001614887,0.221036176,-1.32942895,0.193719293
-0.947388172,-0.21924071,-0.233215183,0.007720649,0.071169242,0.011230946,0.560701251,0.035995673,0.001614887,0.221036176,-1.32942895,0.193719293
-0.947388172,-0.21924071,-0.233215183,0.007720649,0.071169242,0.011230946,0.560701251,0.035995673,0.001614887,0.221036176,-1.32942895,0.193719293
-0.947388172,-0.21924071,-0.233215183,0.007720649,0.071169242,0.011230946,0.560701251,0.035995673,0.001614887,0.221036176,-1.32942895,0.193719293
-0.947388172,-0.21924071,-0.233215183,0.007720649,0.071169242,0.011230946,0.560701251,0.035995673,0.001614887,0.221036176,-1.32942895,0.193719293
-0.947388172,-0.21924071,-0.233215183,0.007720649,0.071169242,0.011230946,0.560701251,0.035995673,0.001614887,0.221036176,-1.32942895,0.193719293
-0.951813221,-0.192970961,-0.238356829,0.003387094,0.021034792,0.015182436,0.856457293,0.05881986,0.008807766,0.194189123,-1.325418686,0.220334691
-0.951813221,-0.192970961,-0.238356829,0.003387094,0.021034792,0.015182436,0.856457293,0.05881986,0.008807766,0.194189123,-1.325418686,0.220334691
-0.951813221,-0.192970961,-0.238356829,0.003387094,0.021034792,0.015182436,0.856457293,0.05881986,0.008807766,0.194189123,-1.325418686,0.220334691
-0.951813221,-0.192970961,-0.238356829,0.003387094,0.021034792,0.015182436,0.856457293,0.05881986,0.008807766,0.194189123,-1.325418686,0.220334691
-0.951813221,-0.192970961,-0.238356829,0.003387094,0.021034792,0.015182436,0.856457293,0.05881986,0.008807766,0.194189123,-1.325418686,0.220334691
-0.951813221,-0.192970961,-0.238356829,0.003387094,0.021034792,0.015182436,0.856457293,0.05881986,0.008807766,0.194189123,-1.325418686,0.220334691
-0.951813221,-0.192970961,-0.238356829,0.003387094,0.021034792,0.015182436,0.856457293,0.05881986,0.008807766,0.194189123,-1.325418686,0.220334691
-0.951813221,-0.192970961,-0.238356829,0.003387094,0.021034792,0.015182436,0.856457293,0.05881986,0.008807766,0.194189123,-1.325418686,0.220334691
-0.951813221,-0.192970961,-0.238356829,0.003387094,0.021034792,0.015182436,0.856457293,0.05881986,0.008807766,0.194189123,-1.325418686,0.220334691
-0.951813221,-0.192970961,-0.238356829,0.003387094,0.021034792,0.015182436,0.856457293,0.05881986,0.008807766,0.194189123,-1.325418686,0.220334691
-0.951813221,-0.192970961,-0.238356829,0.003387094,0.021034792,0.015182436,0.856457293,0.05881986,0.008807766,0.194189123,-1.325418686,0.220334691
-0.951813221,-0.192970961,-0.238356829,0.003387094,0.021034792,0.015182436,0.856457293,0.05881986,0.008807766,0.194189123,-1.325418686,0.220334691
-0.951813221,-0.192970961,-0.238356829,0.003387094,0.021034792,0.015182436,0.856457293,0.05881986,0.008807766,0.194189123,-1.325418686,0.220334691
-0.951813221,-0.192970961,-0.238356829,0.003387094,0.021034792,0.015182436,0.856457293,0.05881986,0.008807766,0.194189123,-1.325418686,0.220334691
-0.951813221,-0.192970961,-0.238356829,0.003387094,0.021034792,0.015182436,0.856457293,0.05881986,0.008807766,0.194189123,-1.325418686,0.220334691
-0.951813221,-0.192970961,-0.238356829,0.003387094,0.021034792,0.015182436,0.856457293,0.05881986,0.008807766,0.194189123,-1.325418686,0.220334691
-0.951813221,-0.192970961,-0.238356829,0.003387094,0.021034792,0.015182436,0.856457293,0.05881986,0.008807766,0.194189123,-1.325418686,0.220334691
-0.951813221,-0.192970961,-0.238356829,0.003387094,0.021034792,0.015182436,0.856457293,0.05881986,0.008807766,0.194189123,-1.325418686,0.220334691
-0.951813221,-0.192970961,-0.238356829,0.003387094,0.021034792,0.015182436,0.856457293,0.05881986,0.008807766,0.194189123,-1.325418686,0.220334691
-0.951813221,-0.192970961,-0.238356829,0.003387094,0.021034792,0.015182436,0.856457293,0.05881986,0.008807766,0.194189123,-1.325418686,0.220334691
-0.951813221,-0.192970961,-0.238356829,0.003387094,0.021034792,0.015182436,0.856457293,0.05881986,0.008807766,0.194189123,-1.325418686,0.220334691
-0.956025004,-0.186452225,-0.226388738,0.008560479,0.016988009,0.000223339,1.156437397,0.021928687,0.080385812,0.187549801,-1.338277256,0.262145059
-0.956025004,-0.186452225,-0.226388738,0.008560479,0.016988009,0.000223339,1.156437397,0.021928687,0.080385812,0.187549801,-1.338277256,0.262145059
-0.956025004,-0.186452225,-0.226388738,0.008560479,0.016988009,0.000223339,1.156437397,0.021928687,0.080385812,0.187549801,-1.338277256,0.262145059
-0.956025004,-0.186452225,-0.226388738,0.008560479,0.016988009,0.000223339,1.156437397,0.021928687,0.080385812,0.187549801,-1.338277256,0.262145059
-0.956025004,-0.186452225,-0.226388738,0.008560479,0.016988009,0.000223339,1.156437397,0.021928687,0.080385812,0.187549801,-1.338277256,0.262145059
-0.956025004,-0.186452225,-0.226388738,0.008560479,0.016988009,0.000223339,1.156437397,0.021928687,0.080385812,0.187549801,-1.338277256,0.262145059
-0.956025004,-0.186452225,-0.226388738,0.008560479,0.016988009,0.000223339,1.156437397,0.021928687,0.080385812,0.187549801,-1.338277256,0.262145059
-0.956025004,-0.186452225,-0.226388738,0.008560479,0.016988009,0.000223339,1.156437397,0.021928687,0.080385812,0.187549801,-1.338277256,0.262145059
-0.956025004,-0.186452225,-0.226388738,0.008560479,0.016988009,0.000223339,1.156437397,0.021928687,0.080385812,0.187549801,-1.338277256,0.262145059
-0.956025004,-0.186452225,-0.226388738,0.008560479,0.016988009,0.000223339,1.156437397,0.021928687,0.080385812,0.187549801,-1.338277256,0.262145059
-0.956025004,-0.186452225,-0.226388738,0.008560479,0.016988009,0.000223339,1.156437397,0.021928687,0.080385812,0.187549801,-1.338277256,0.262145059
-0.956025004,-0.186452225,-0.226388738,0.008560479,0.016988009,0.000223339,1.156437397,0.021928687,0.080385812,0.187549801,-1.338277256,0.262145059
-0.956025004,-0.186452225,-0.226388738,0.008560479,0.016988009,0.000223339,1.156437397,0.021928687,0.080385812,0.187549801,-1.338277256,0.262145059
-0.956025004,-0.186452225,-0.226388738,0.008560479,0.016988009,0.000223339,1.156437397,0.021928687,0.080385812,0.187549801,-1.338277256,0.262145059
-0.956025004,-0.186452225,-0.226388738,0.008560479,0.016988009,0.000223339,1.156437397,0.021928687,0.080385812,0.187549801,-1.338277256,0.262145059
-0.956025004,-0.186452225,-0.226388738,0.008560479,0.016988009,0.000223339,1.156437397,0.021928687,0.080385812,0.187549801,-1.338277256,0.262145059
-0.956025004,-0.186452225,-0.226388738,0.008560479,0.016988009,0.000223339,1.156437397,0.021928687,0.080385812,0.187549801,-1.338277256,0.262145059
-0.956025004,-0.186452225,-0.226388738,0.008560479,0.016988009,0.000223339,1.156437397,0.021928687,0.080385812,0.187549801,-1.338277256,0.262145059
-0.956025004,-0.186452225,-0.226388738,0.008560479,0.016988009,0.000223339,1.156437397,0.021928687,0.080385812,0.187549801,-1.338277256,0.262145059
-0.956025004,-0.186452225,-0.226388738,0.008560479,0.016988009,0.000223339,1.156437397,0.021928687,0.080385812,0.187549801,-1.338277256,0.262145059
-0.956925094,-0.192746714,-0.217124864,0.002929688,-0.020006716,-0.004630625,1.213925362,-0.016207756,0.14171949,0.193960586,-1.347675608,0.311543256
-0.956925094,-0.192746714,-0.217124864,0.002929688,-0.020006716,-0.004630625,1.213925362,-0.016207756,0.14171949,0.193960586,-1.347675608,0.311543256
-0.956925094,-0.192746714,-0.217124864,0.002929688,-0.020006716,-0.004630625,1.213925362,-0.016207756,0.14171949,0.193960586,-1.347675608,0.311543256
-0.956925094,-0.192746714,-0.217124864,0.002929688,-0.020006716,-0.004630625,1.213925362,-0.016207756,0.14171949,0.193960586,-1.347675608,0.311543256
-0.956925094,-0.192746714,-0.217124864,0.002929688,-0.020006716,-0.004630625,1.213925362,-0.016207756,0.14171949,0.193960586,-1.347675608,0.311543256
-0.956925094,-0.192746714,-0.217124864,0.002929688,-0.020006716,-0.004630625,1.213925362,-0.016207756,0.14171949,0.193960586,-1.347675608,0.311543256
-0.956925094,-0.192746714,-0.217124864,0.002929688,-0.020006716,-0.004630625,1.213925362,-0.016207756,0.14171949,0.193960586,-1.347675608,0.311543256
-0.956925094,-0.192746714,-0.217124864,0.002929688,-0.020006716,-0.004630625,1.213925362,-0.016207756,0.14171949,0.193960586,-1.347675608,0.311543256
-0.956925094,-0.192746714,-0.217124864,0.002929688,-0.020006716,-0.004630625,1.213925362,-0.016207756,0.14171949,0.193960586,-1.347675608,0.311543256
-0.956925094,-0.192746714,-0.217124864,0.002929688,-0.020006716,-0.004630625,1.213925362,-0.016207756,0.14171949,0.193960586,-1.347675608,0.311543256
-0.956925094,-0.192746714,-0.217124864,0.002929688,-0.020006716,-0.004630625,1.213925362,-0.016207756,0.14171949,0.193960586,-1.347675608,0.311543256
-0.956925094,-0.192746714,-0.217124864,0.002929688,-0.020006716,-0.004630625,1.213925362,-0.016207756,0.14171949,0.193960586,-1.347675608,0.311543256
-0.956925094,-0.192746714,-0.217124864,0.002929688,-0.020006716,-0.004630625,1.213925362,-0.016207756,0.14171949,0.193960586,-1.347675608,0.311543256
-0.956925094,-0.192746714,-0.217124864,0.002929688,-0.020006716,-0.004630625,1.213925362,-0.016207756,0.14171949,0.193960586,-1.347675608,0.311543256
-0.956925094,-0.192746714,-0.217124864,0.002929688,-0.020006716,-0.004630625,1.213925362,-0.016207756,0.14171949,0.193960586,-1.347675608,0.311543256
-0.956925094,-0.192746714,-0.217124864,0.002929688,-0.020006716,-0.004630625,1.213925362,-0.016207756,0.14171949,0.193960586,-1.347675608,0.311543256
-0.958682358,-0.190863431,-0.210949212,0.001879156,-0.027978271,-0.008471489,0.906127095,-0.026620075,0.11450804,0.192041666,-1.354207118,0.355324084
-0.958682358,-0.190863431,-0.210949212,0.001879156,-0.027978271,-0.008471489,0.906127095,-0.026620075,0.11450804,0.192041666,-1.354207118,0.355324084
-0.958682358,-0.190863431,-0.210949212,0.001879156,-0.027978271,-0.008471489,0.906127095,-0.026620075,0.11450804,0.192041666,-1.354207118,0.355324084
-0.958682358,-0.190863431,-0.210949212,0.001879156,-0.027978271,-0.008471489,0.906127095,-0.026620075,0.11450804,0.192041666,-1.354207118,0.355324084
-0.958682358,-0.190863431,-0.210949212,0.001879156,-0.027978271,-0.008471489,0.906127095,-0.026620075,0.11450804,0.192041666,-1.354207118,0.355324084
-0.958682358,-0.190863431,-0.210949212,0.001879156,-0.027978271,-0.008471489,0.906127095,-0.026620075,0.11450804,0.192041666,-1.354207118,0.355324084
-0.958682358,-0.190863431,-0.210949212,0.001879156,-0.027978271,-0.008471489,0.906127095,-0.026620075,0.11450804,0.192041666,-1.354207118,0.355324084
-0.958682358,-0.190863431,-0.210949212,0.001879156,-0.027978271,-0.008471489,0.906127095,-0.026620075,0.11450804,0.192041666,-1.354207118,0.355324084
-0.958682358,-0.190863431,-0.210949212,0.001879156,-0.027978271,-0.008471489,0.906127095,-0.026620075,0.11450804,0.192041666,-1.354207118,0.355324084
-0.958682358,-0.190863431,-0.210949212,0.001879156,-0.027978271,-0.008471489,0.906127095,-0.026620075,0.11450804,0.192041666,-1.354207118,0.355324084
-0.958682358,-0.190863431,-0.210949212,0.001879156,-0.027978271,-0.008471489,0.906127095,-0.026620075,0.11450804,0.192041666,-1.354207118,0.355324084
-0.958682358,-0.190863431,-0.210949212,0.001879156,-0.027978271,-0.008471489,0.906127095,-0.026620075,0.11450804,0.192041666,-1.354207118,0.355324084
-0.958682358,-0.190863431,-0.210949212,0.001879156,-0.027978271,-0.008471489,0.906127095,-0.026620075,0.11450804,0.192041666,-1.354207118,0.355324084
-0.958682358,-0.190863431,-0.210949212,0.001879156,-0.027978271,-0.008471489,0.906127095,-0.026620075,0.11450804,0.192041666,-1.354207118,0.355324084
-0.958682358,-0.190863431,-0.210949212,0.001879156,-0.027978271,-0.008471489,0.906127095,-0.026620075,0.11450804,0.192041666,-1.354207118,0.355324084
-0.958682358,-0.190863431,-0.210949212,0.001879156,-0.027978271,-0.008471489,0.906127095,-0.026620075,0.11450804,0.192041666,-1.354207118,0.355324084
-0.958682358,-0.190863431,-0.210949212,0.001879156,-0.027978271,-0.008471489,0.906127095,-0.026620075,0.11450804,0.192041666,-1.354207118,0.355324084
-0.958682358,-0.190863431,-0.210949212,0.001879156,-0.027978271,-0.008471489,0.906127095,-0.026620075,0.11450804,0.192041666,-1.354207118,0.355324084
-0.958682358,-0.190863431,-0.210949212,0.001879156,-0.027978271,-0.008471489,0.906127095,-0.026620075,0.11450804,0.192041666,-1.354207118,0.355324084
-0.958682358,-0.190863431,-0.210949212,0.001879156,-0.027978271,-0.008471489,0.906127095,-0.026620075,0.11450804,0.192041666,-1.354207118,0.355324084
-0.958682358,-0.190863431,-0.210949212,0.001879156,-0.027978271,-0.008471489,0.906127095,-0.026620075,0.11450804,0.192041666,-1.354207118,0.355324084
-0.958682358,-0.190863431,-0.210949212,0.001879156,-0.027978271,-0.008471489,0.906127095,-0.026620075,0.11450804,0.192041666,-1.354207118,0.355324084
-0.958682358,-0.190863431,-0.210949212,0.001879156,-0.027978271,-0.008471489,0.906127095,-0.026620075,0.11450804,0.192041666,-1.354207118,0.355324084
-0.958682358,-0.190863431,-0.210949212,0.001879156,-0.027978271,-0.008471489,0.906127095,-0.026620075,0.11450804,0.192041666,-1.354207118,0.355324084
-0.958682358,-0.190863431,-0.210949212,0.001879156,-0.027978271,-0.008471489,0.906127095,-0.026620075,0.11450804,0.192041666,-1.354207118,0.355324084
-0.958682358,-0.190863431,-0.210949212,0.001879156,-0.027978271,-0.008471489,0.906127095,-0.026620075,0.11450804,0.192041666,-1.354207118,0.355324084
-0.959066331,-0.191583171,-0.208537504,-0.026789486,-0.064169526,-0.023517668,0.34431541,0.001943962,0.226667598,0.192774941,-1.356691017,0.380531014
-0.959066331,-0.191583171,-0.208537504,-0.026789486,-0.064169526,-0.023517668,0.34431541,0.001943962,0.226667598,0.192774941,-1.356691017,0.380531014
-0.959066331,-0.191583171,-0.208537504,-0.026789486,-0.064169526,-0.023517668,0.34431541,0.001943962,0.226667598,0.192774941,-1.356691017,0.380531014
-0.959066331,-0.191583171,-0.208537504,-0.026789486,-0.064169526,-0.023517668,0.34431541,0.001943962,0.226667598,0.192774941,-1.356691017,0.380531014
-0.959066331,-0.191583171,-0.208537504,-0.026789486,-0.064169526,-0.023517668,0.34431541,0.001943962,0.226667598,0.192774941,-1.356691017,0.380531014
-0.959066331,-0.191583171,-0.208537504,-0.026789486,-0.064169526,-0.023517668,0.34431541,0.001943962,0.226667598,0.192774941,-1.356691017,0.380531014
-0.95984906,-0.182174116,-0.213313326,-0.001699507,-0.051911086,-0.014454126,-0.193252087,0.09649463,0.11156781,0.183197123,-1.352113935,0.38898221
-0.95984906,-0.182174116,-0.213313326,-0.001699507,-0.051911086,-0.014454126,-0.193252087,0.09649463,0.11156781,0.183197123,-1.352113935,0.38898221
-0.95984906,-0.182174116,-0.213313326,-0.001699507,-0.051911086,-0.014454126,-0.193252087,0.09649463,0.11156781,0.183197123,-1.352113935,0.38898221
-0.952615857,-0.198510289,-0.230470791,0.024987817,-0.007803887,-0.00019598,-0.095488787,0.137605458,0.05015979,0.199837729,-1.333422864,0.37584865
-0.952615857,-0.198510289,-0.230470791,0.024987817,-0.007803887,-0.00019598,-0.095488787,0.137605458,0.05015979,0.199837729,-1.333422864,0.37584865
-0.952615857,-0.198510289,-0.230470791,0.024987817,-0.007803887,-0.00019598,-0.095488787,0.137605458,0.05015979,0.199837729,-1.333422864,0.37584865
-0.944059551,-0.212360457,-0.252298981,-0.012149036,0.022144079,-0.000934958,-0.373963475,0.009472174,-0.180416003,0.213989879,-1.309650339,0.348503491
-0.944059551,-0.212360457,-0.252298981,-0.012149036,0.022144079,-0.000934958,-0.373963475,0.009472174,-0.180416003,0.213989879,-1.309650339,0.348503491
-0.944059551,-0.212360457,-0.252298981,-0.012149036,0.022144079,-0.000934958,-0.373963475,0.009472174,-0.180416003,0.213989879,-1.309650339,0.348503491
-0.944059551,-0.212360457,-0.252298981,-0.012149036,0.022144079,-0.000934958,-0.373963475,0.009472174,-0.180416003,0.213989879,-1.309650339,0.348503491
-0.944059551,-0.212360457,-0.252298981,-0.012149036,0.022144079,-0.000934958,-0.373963475,0.009472174,-0.180416003,0.213989879,-1.309650339,0.348503491
-0.944059551,-0.212360457,-0.252298981,-0.012149036,0.022144079,-0.000934958,-0.373963475,0.009472174,-0.180416003,0.213989879,-1.309650339,0.348503491
-0.942224503,-0.217107549,-0.255103022,-0.01894325,0.042287275,0.009483218,-0.215142965,0.043982167,-0.162506729,0.218850359,-1.306389792,0.335111349
-0.942224503,-0.217107549,-0.255103022,-0.01894325,0.042287275,0.009483218,-0.215142965,0.043982167,-0.162506729,0.218850359,-1.306389792,0.335111349
-0.942224503,-0.217107549,-0.255103022,-0.01894325,0.042287275,0.009483218,-0.215142965,0.043982167,-0.162506729,0.218850359,-1.306389792,0.335111349
-0.942224503,-0.217107549,-0.255103022,-0.01894325,0.042287275,0.009483218,-0.215142965,0.043982167,-0.162506729,0.218850359,-1.306389792,0.335111349
-0.942224503,-0.217107549,-0.255103022,-0.01894325,0.042287275,0.009483218,-0.215142965,0.043982167,-0.162506729,0.218850359,-1.306389792,0.335111349
-0.942224503,-0.217107549,-0.255103022,-0.01894325,0.042287275,0.009483218,-0.215142965,0.043982167,-0.162506729,0.218850359,-1.306389792,0.335111349
-0.940662622,-0.220259622,-0.258146763,-0.027355969,0.050581664,0.017791092,-0.10672874,0.039126396,-0.163288102,0.222080627,-1.302959394,0.327162257
-0.940662622,-0.220259622,-0.258146763,-0.027355969,0.050581664,0.017791092,-0.10672874,0.039126396,-0.163288102,0.222080627,-1.302959394,0.327162257
-0.940662622,-0.220259622,-0.258146763,-0.027355969,0.050581664,0.017791092,-0.10672874,0.039126396,-0.163288102,0.222080627,-1.302959394,0.327162257
-0.940662622,-0.220259622,-0.258146763,-0.027355969,0.050581664,0.017791092,-0.10672874,0.039126396,-0.163288102,0.222080627,-1.302959394,0.327162257
-0.940662622,-0.220259622,-0.258146763,-0.027355969,0.050581664,0.017791092,-0.10672874,0.039126396,-0.163288102,0.222080627,-1.302959394,0.327162257
-0.940662622,-0.220259622,-0.258146763,-0.027355969,0.050581664,0.017791092,-0.10672874,0.039126396,-0.163288102,0.222080627,-1.302959394,0.327162257
-0.940662622,-0.220259622,-0.258146763,-0.027355969,0.050581664,0.017791092,-0.10672874,0.039126396,-0.163288102,0.222080627,-1.302959394,0.327162257
-0.940662622,-0.220259622,-0.258146763,-0.027355969,0.050581664,0.017791092,-0.10672874,0.039126396,-0.163288102,0.222080627,-1.302959394,0.327162257
-0.940662622,-0.220259622,-0.258146763,-0.027355969,0.050581664,0.017791092,-0.10672874,0.039126396,-0.163288102,0.222080627,-1.302959394,0.327162257
-0.940662622,-0.220259622,-0.258146763,-0.027355969,0.050581664,0.017791092,-0.10672874,0.039126396,-0.163288102,0.222080627,-1.302959394,0.327162257
-0.940662622,-0.220259622,-0.258146763,-0.027355969,0.050581664,0.017791092,-0.10672874,0.039126396,-0.163288102,0.222080627,-1.302959394,0.327162257
-0.940662622,-0.220259622,-0.258146763,-0.027355969,0.050581664,0.017791092,-0.10672874,0.039126396,-0.163288102,0.222080627,-1.302959394,0.327162257
-0.939998925,-0.221815199,-0.259230256,-0.02402246,0.069104865,0.062835634,-0.055856355,0.043101639,-0.201051146,0.223675653,-1.301707721,0.322730006
-0.939998925,-0.221815199,-0.259230256,-0.02402246,0.069104865,0.062835634,-0.055856355,0.043101639,-0.201051146,0.223675653,-1.301707721,0.322730006
-0.939998925,-0.221815199,-0.259230256,-0.02402246,0.069104865,0.062835634,-0.055856355,0.043101639,-0.201051146,0.223675653,-1.301707721,0.322730006
-0.939998925,-0.221815199,-0.259230256,-0.02402246,0.069104865,0.062835634,-0.055856355,0.043101639,-0.201051146,0.223675653,-1.301707721,0.322730006
-0.939998925,-0.221815199,-0.259230256,-0.02402246,0.069104865,0.062835634,-0.055856355,0.043101639,-0.201051146,0.223675653,-1.301707721,0.322730006
-0.939998925,-0.221815199,-0.259230256,-0.02402246,0.069104865,0.062835634,-0.055856355,0.043101639,-0.201051146,0.223675653,-1.301707721,0.322730006
-0.939998925,-0.221815199,-0.259230256,-0.02402246,0.069104865,0.062835634,-0.055856355,0.043101639,-0.201051146,0.223675653,-1.301707721,0.322730006
-0.939998925,-0.221815199,-0.259230256,-0.02402246,0.069104865,0.062835634,-0.055856355,0.043101639,-0.201051146,0.223675653,-1.301707721,0.322730006
-0.939998925,-0.221815199,-0.259230256,-0.02402246,0.069104865,0.062835634,-0.055856355,0.043101639,-0.201051146,0.223675653,-1.301707721,0.322730006
-0.938608706,-0.225270197,-0.261279881,-0.03108865,0.048588336,0.084309399,-0.052445993,0.105175689,-0.206003338,0.227220351,-1.299300371,0.318939559
-0.938608706,-0.225270197,-0.261279881,-0.03108865,0.048588336,0.084309399,-0.052445993,0.105175689,-0.206003338,0.227220351,-1.299300371,0.318939559
-0.938608706,-0.225270197,-0.261279881,-0.03108865,0.048588336,0.084309399,-0.052445993,0.105175689,-0.206003338,0.227220351,-1.299300371,0.318939559
-0.938608706,-0.225270197,-0.261279881,-0.03108865,0.048588336,0.084309399,-0.052445993,0.105175689,-0.206003338,0.227220351,-1.299300371,0.318939559
-0.938608706,-0.225270197,-0.261279881,-0.03108865,0.048588336,0.084309399,-0.052445993,0.105175689,-0.206003338,0.227220351,-1.299300371,0.318939559
-0.938608706,-0.225270197,-0.261279881,-0.03108865,0.048588336,0.084309399,-0.052445993,0.105175689,-0.206003338,0.227220351,-1.299300371,0.318939559
-0.938608706,-0.225270197,-0.261279881,-0.03108865,0.048588336,0.084309399,-0.052445993,0.105175689,-0.206003338,0.227220351,-1.299300371,0.318939559
-0.938608706,-0.225270197,-0.261279881,-0.03108865,0.048588336,0.084309399,-0.052445993,0.105175689,-0.206003338,0.227220351,-1.299300371,0.318939559
-0.938221753,-0.225734085,-0.26226759,0.00589323,0.061533988,0.074707508,-0.12298388,0.070934132,-0.155429646,0.227696511,-1.298217124,0.31404536
-0.938221753,-0.225734085,-0.26226759,0.00589323,0.061533988,0.074707508,-0.12298388,0.070934132,-0.155429646,0.227696511,-1.298217124,0.31404536
-0.938221753,-0.225734085,-0.26226759,0.00589323,0.061533988,0.074707508,-0.12298388,0.070934132,-0.155429646,0.227696511,-1.298217124,0.31404536
-0.938221753,-0.225734085,-0.26226759,0.00589323,0.061533988,0.074707508,-0.12298388,0.070934132,-0.155429646,0.227696511,-1.298217124,0.31404536
-0.938221753,-0.225734085,-0.26226759,0.00589323,0.061533988,0.074707508,-0.12298388,0.070934132,-0.155429646,0.227696511,-1.298217124,0.31404536
-0.938221753,-0.225734085,-0.26226759,0.00589323,0.061533988,0.074707508,-0.12298388,0.070934132,-0.155429646,0.227696511,-1.298217124,0.31404536
-0.93904835,-0.226236865,-0.258853465,0.017492175,0.077798963,0.100453198,0.01118827,0.03610779,-0.115760691,0.228212632,-1.301821188,0.31184032
-0.93904835,-0.226236865,-0.258853465,0.017492175,0.077798963,0.100453198,0.01118827,0.03610779,-0.115760691,0.228212632,-1.301821188,0.31184032
-0.93904835,-0.226236865,-0.258853465,0.017492175,0.077798963,0.100453198,0.01118827,0.03610779,-0.115760691,0.228212632,-1.301821188,0.31184032
-0.93904835,-0.226236865,-0.258853465,0.017492175,0.077798963,0.100453198,0.01118827,0.03610779,-0.115760691,0.228212632,-1.301821188,0.31184032
-0.93904835,-0.226236865,-0.258853465,0.017492175,0.077798963,0.100453198,0.01118827,0.03610779,-0.115760691,0.228212632,-1.301821188,0.31184032
-0.93904835,-0.226236865,-0.258853465,0.017492175,0.077798963,0.100453198,0.01118827,0.03610779,-0.115760691,0.228212632,-1.301821188,0.31184032
-0.93904835,-0.226236865,-0.258853465,0.017492175,0.077798963,0.100453198,0.01118827,0.03610779,-0.115760691,0.228212632,-1.301821188,0.31184032
-0.93904835,-0.226236865,-0.258853465,0.017492175,0.077798963,0.100453198,0.01118827,0.03610779,-0.115760691,0.228212632,-1.301821188,0.31184032
-0.93904835,-0.226236865,-0.258853465,0.017492175,0.077798963,0.100453198,0.01118827,0.03610779,-0.115760691,0.228212632,-1.301821188,0.31184032
-0.93904835,-0.226236865,-0.258853465,0.017492175,0.077798963,0.100453198,0.01118827,0.03610779,-0.115760691,0.228212632,-1.301821188,0.31184032
-0.939890325,-0.226905361,-0.255186647,0.021096051,0.066046834,0.074676454,0.065658152,-0.053980425,0.004097753,0.228898985,-1.305680567,0.313833185
-0.939890325,-0.226905361,-0.255186647,0.021096051,0.066046834,0.074676454,0.065658152,-0.053980425,0.004097753,0.228898985,-1.305680567,0.313833185
-0.939890325,-0.226905361,-0.255186647,0.021096051,0.066046834,0.074676454,0.065658152,-0.053980425,0.004097753,0.228898985,-1.305680567,0.313833185
-0.939890325,-0.226905361,-0.255186647,0.021096051,0.066046834,0.074676454,0.065658152,-0.053980425,0.004097753,0.228898985,-1.305680567,0.313833185
-0.939890325,-0.226905361,-0.255186647,0.021096051,0.066046834,0.074676454,0.065658152,-0.053980425,0.004097753,0.228898985,-1.305680567,0.313833185
-0.942862391,-0.222683266,-0.247836545,0.015782535,0.068233415,0.075459301,0.145958245,-0.125869244,0.121796906,0.22456598,-1.313755458,0.319358297
-0.942862391,-0.222683266,-0.247836545,0.015782535,0.068233415,0.075459301,0.145958245,-0.125869244,0.121796906,0.22456598,-1.313755458,0.319358297
-0.942862391,-0.222683266,-0.247836545,0.015782535,0.068233415,0.075459301,0.145958245,-0.125869244,0.121796906,0.22456598,-1.313755458,0.319358297
-0.942862391,-0.222683266,-0.247836545,0.015782535,0.068233415,0.075459301,0.145958245,-0.125869244,0.121796906,0.22456598,-1.313755458,0.319358297
-0.942862391,-0.222683266,-0.247836545,0.015782535,0.068233415,0.075459301,0.145958245,-0.125869244,0.121796906,0.22456598,-1.313755458,0.319358297
-0.942862391,-0.222683266,-0.247836545,0.015782535,0.068233415,0.075459301,0.145958245,-0.125869244,0.121796906,0.22456598,-1.313755458,0.319358297
-0.947135627,-0.216087669,-0.237150714,0.009634256,0.044944763,0.05371052,0.17265214,-0.207337722,0.189451739,0.217805675,-1.32545319,0.328073014
-0.947135627,-0.216087669,-0.237150714,0.009634256,0.044944763,0.05371052,0.17265214,-0.207337722,0.189451739,0.217805675,-1.32545319,0.328073014
-0.947135627,-0.216087669,-0.237150714,0.009634256,0.044944763,0.05371052,0.17265214,-0.207337722,0.189451739,0.217805675,-1.32545319,0.328073014
-0.947135627,-0.216087669,-0.237150714,0.009634256,0.044944763,0.05371052,0.17265214,-0.207337722,0.189451739,0.217805675,-1.32545319,0.328073014
-0.947135627,-0.216087669,-0.237150714,0.009634256,0.044944763,0.05371052,0.17265214,-0.207337722,0.189451739,0.217805675,-1.32545319,0.328073014
-0.947135627,-0.216087669,-0.237150714,0.009634256,0.044944763,0.05371052,0.17265214,-0.207337722,0.189451739,0.217805675,-1.32545319,0.328073014
-0.951868653,-0.208222896,-0.224921256,-0.002921104,0.038666874,0.035591483,0.184209362,-0.251961112,0.213939875,0.209757679,-1.338758042,0.337461864
-0.951868653,-0.208222896,-0.224921256,-0.002921104,0.038666874,0.035591483,0.184209362,-0.251961112,0.213939875,0.209757679,-1.338758042,0.337461864
-0.95656693,-0.199702412,-0.212365136,-0.01055181,0.018381953,0.021402538,0.160411,-0.239289925,0.242864162,0.20105421,-1.352331909,0.346762261
-0.971184373,-0.163342416,-0.173552006,0.004173338,-0.019015491,-0.040024877,0.2940467,-0.187852234,0.290225267,0.164077629,-1.393961512,0.38773812
-0.971184373,-0.163342416,-0.173552006,0.004173338,-0.019015491,-0.040024877,0.2940467,-0.187852234,0.290225267,0.164077629,-1.393961512,0.38773812
-0.971184373,-0.163342416,-0.173552006,0.004173338,-0.019015491,-0.040024877,0.2940467,-0.187852234,0.290225267,0.164077629,-1.393961512,0.38773812
-0.971184373,-0.163342416,-0.173552006,0.004173338,-0.019015491,-0.040024877,0.2940467,-0.187852234,0.290225267,0.164077629,-1.393961512,0.38773812
-0.971184373,-0.163342416,-0.173552006,0.004173338,-0.019015491,-0.040024877,0.2940467,-0.187852234,0.290225267,0.164077629,-1.393961512,0.38773812
-0.971184373,-0.163342416,-0.173552006,0.004173338,-0.019015491,-0.040024877,0.2940467,-0.187852234,0.290225267,0.164077629,-1.393961512,0.38773812
-0.973635972,-0.155778155,-0.166632324,0.00445807,-0.044752985,-0.053170025,0.267681032,-0.170287192,0.239899576,0.15641517,-1.401294139,0.400756956
-0.973635972,-0.155778155,-0.166632324,0.00445807,-0.044752985,-0.053170025,0.267681032,-0.170287192,0.239899576,0.15641517,-1.401294139,0.400756956
-0.973635972,-0.155778155,-0.166632324,0.00445807,-0.044752985,-0.053170025,0.267681032,-0.170287192,0.239899576,0.15641517,-1.401294139,0.400756956
-0.973635972,-0.155778155,-0.166632324,0.00445807,-0.044752985,-0.053170025,0.267681032,-0.170287192,0.239899576,0.15641517,-1.401294139,0.400756956
-0.973635972,-0.155778155,-0.166632324,0.00445807,-0.044752985,-0.053170025,0.267681032,-0.170287192,0.239899576,0.15641517,-1.401294139,0.400756956
-0.973635972,-0.155778155,-0.166632324,0.00445807,-0.044752985,-0.053170025,0.267681032,-0.170287192,0.239899576,0.15641517,-1.401294139,0.400756956
-0.973635972,-0.155778155,-0.166632324,0.00445807,-0.044752985,-0.053170025,0.267681032,-0.170287192,0.239899576,0.15641517,-1.401294139,0.400756956
-0.973635972,-0.155778155,-0.166632324,0.00445807,-0.044752985,-0.053170025,0.267681032,-0.170287192,0.239899576,0.15641517,-1.401294139,0.400756956
-0.973635972,-0.155778155,-0.166632324,0.00445807,-0.044752985,-0.053170025,0.267681032,-0.170287192,0.239899576,0.15641517,-1.401294139,0.400756956
-0.975462735,-0.15011403,-0.161054537,8.96E-05,-0.04461877,-0.049882233,0.20568274,-0.155183494,0.191326916,0.150683602,-1.407166737,0.411352703
-0.975462735,-0.15011403,-0.161054537,8.96E-05,-0.04461877,-0.049882233,0.20568274,-0.155183494,0.191326916,0.150683602,-1.407166737,0.411352703
-0.975462735,-0.15011403,-0.161054537,8.96E-05,-0.04461877,-0.049882233,0.20568274,-0.155183494,0.191326916,0.150683602,-1.407166737,0.411352703
-0.976689398,-0.145708203,-0.157629192,0.003635943,-0.063688248,-0.071786344,0.123000935,-0.117073879,0.171967983,0.146228776,-1.410784767,0.418721292
-0.976689398,-0.145708203,-0.157629192,0.003635943,-0.063688248,-0.071786344,0.123000935,-0.117073879,0.171967983,0.146228776,-1.410784767,0.418721292
-0.976689398,-0.145708203,-0.157629192,0.003635943,-0.063688248,-0.071786344,0.123000935,-0.117073879,0.171967983,0.146228776,-1.410784767,0.418721292
-0.976689398,-0.145708203,-0.157629192,0.003635943,-0.063688248,-0.071786344,0.123000935,-0.117073879,0.171967983,0.146228776,-1.410784767,0.418721292
-0.976689398,-0.145708203,-0.157629192,0.003635943,-0.063688248,-0.071786344,0.123000935,-0.117073879,0.171967983,0.146228776,-1.410784767,0.418721292
-0.976689398,-0.145708203,-0.157629192,0.003635943,-0.063688248,-0.071786344,0.123000935,-0.117073879,0.171967983,0.146228776,-1.410784767,0.418721292
-0.976689398,-0.145708203,-0.157629192,0.003635943,-0.063688248,-0.071786344,0.123000935,-0.117073879,0.171967983,0.146228776,-1.410784767,0.418721292
-0.976689398,-0.145708203,-0.157629192,0.003635943,-0.063688248,-0.071786344,0.123000935,-0.117073879,0.171967983,0.146228776,-1.410784767,0.418721292
-0.976689398,-0.145708203,-0.157629192,0.003635943,-0.063688248,-0.071786344,0.123000935,-0.117073879,0.171967983,0.146228776,-1.410784767,0.418721292
-0.976689398,-0.145708203,-0.157629192,0.003635943,-0.063688248,-0.071786344,0.123000935,-0.117073879,0.171967983,0.146228776,-1.410784767,0.418721292
-0.976689398,-0.145708203,-0.157629192,0.003635943,-0.063688248,-0.071786344,0.123000935,-0.117073879,0.171967983,0.146228776,-1.410784767,0.418721292
-0.976689398,-0.145708203,-0.157629192,0.003635943,-0.063688248,-0.071786344,0.123000935,-0.117073879,0.171967983,0.146228776,-1.410784767,0.418721292
-0.977630377,-0.142221302,-0.15495868,0.009291828,-0.064504862,-0.077874839,0.018176325,-0.104058683,0.109202869,0.142705176,-1.413599709,0.422178217
-0.977630377,-0.142221302,-0.15495868,0.009291828,-0.064504862,-0.077874839,0.018176325,-0.104058683,0.109202869,0.142705176,-1.413599709,0.422178217
-0.977630377,-0.142221302,-0.15495868,0.009291828,-0.064504862,-0.077874839,0.018176325,-0.104058683,0.109202869,0.142705176,-1.413599709,0.422178217
-0.977630377,-0.142221302,-0.15495868,0.009291828,-0.064504862,-0.077874839,0.018176325,-0.104058683,0.109202869,0.142705176,-1.413599709,0.422178217
-0.977630377,-0.142221302,-0.15495868,0.009291828,-0.064504862,-0.077874839,0.018176325,-0.104058683,0.109202869,0.142705176,-1.413599709,0.422178217
-0.977630377,-0.142221302,-0.15495868,0.009291828,-0.064504862,-0.077874839,0.018176325,-0.104058683,0.109202869,0.142705176,-1.413599709,0.422178217
-0.977630377,-0.142221302,-0.15495868,0.009291828,-0.064504862,-0.077874839,0.018176325,-0.104058683,0.109202869,0.142705176,-1.413599709,0.422178217
-0.977630377,-0.142221302,-0.15495868,0.009291828,-0.064504862,-0.077874839,0.018176325,-0.104058683,0.109202869,0.142705176,-1.413599709,0.422178217
-0.977630377,-0.142221302,-0.15495868,0.009291828,-0.064504862,-0.077874839,0.018176325,-0.104058683,0.109202869,0.142705176,-1.413599709,0.422178217
-0.977630377,-0.142221302,-0.15495868,0.009291828,-0.064504862,-0.077874839,0.018176325,-0.104058683,0.109202869,0.142705176,-1.413599709,0.422178217
-0.977863014,-0.141634971,-0.154025063,0.000932872,-0.064664021,-0.071544468,-0.061341483,-0.075379036,0.025976101,0.142112844,-1.414567998,0.421122042
-0.977863014,-0.141634971,-0.154025063,0.000932872,-0.064664021,-0.071544468,-0.061341483,-0.075379036,0.025976101,0.142112844,-1.414567998,0.421122042
-0.977863014,-0.141634971,-0.154025063,0.000932872,-0.064664021,-0.071544468,-0.061341483,-0.075379036,0.025976101,0.142112844,-1.414567998,0.421122042
-0.977863014,-0.141634971,-0.154025063,0.000932872,-0.064664021,-0.071544468,-0.061341483,-0.075379036,0.025976101,0.142112844,-1.414567998,0.421122042
-0.977863014,-0.141634971,-0.154025063,0.000932872,-0.064664021,-0.071544468,-0.061341483,-0.075379036,0.025976101,0.142112844,-1.414567998,0.421122042
-0.977863014,-0.141634971,-0.154025063,0.000932872,-0.064664021,-0.071544468,-0.061341483,-0.075379036,0.025976101,0.142112844,-1.414567998,0.421122042
-0.977863014,-0.141634971,-0.154025063,0.000932872,-0.064664021,-0.071544468,-0.061341483,-0.075379036,0.025976101,0.142112844,-1.414567998,0.421122042
-0.977254808,-0.143967107,-0.155713558,-0.014827132,-0.044387594,-0.051942229,-0.097138204,-0.023744743,-0.046725426,0.144469121,-1.412786873,0.417380048
-0.977254808,-0.143967107,-0.155713558,-0.014827132,-0.044387594,-0.051942229,-0.097138204,-0.023744743,-0.046725426,0.144469121,-1.412786873,0.417380048
-0.977254808,-0.143967107,-0.155713558,-0.014827132,-0.044387594,-0.051942229,-0.097138204,-0.023744743,-0.046725426,0.144469121,-1.412786873,0.417380048
-0.974149168,-0.153255314,-0.165971562,0.012736559,-0.009495273,-0.026928186,-0.059982475,0.102422439,-0.1137027,0.153861669,-1.402040835,0.404922748
-0.974149168,-0.153255314,-0.165971562,0.012736559,-0.009495273,-0.026928186,-0.059982475,0.102422439,-0.1137027,0.153861669,-1.402040835,0.404922748
-0.974149168,-0.153255314,-0.165971562,0.012736559,-0.009495273,-0.026928186,-0.059982475,0.102422439,-0.1137027,0.153861669,-1.402040835,0.404922748
-0.974149168,-0.153255314,-0.165971562,0.012736559,-0.009495273,-0.026928186,-0.059982475,0.102422439,-0.1137027,0.153861669,-1.402040835,0.404922748
-0.974149168,-0.153255314,-0.165971562,0.012736559,-0.009495273,-0.026928186,-0.059982475,0.102422439,-0.1137027,0.153861669,-1.402040835,0.404922748
-0.974149168,-0.153255314,-0.165971562,0.012736559,-0.009495273,-0.026928186,-0.059982475,0.102422439,-0.1137027,0.153861669,-1.402040835,0.404922748
-0.972417474,-0.158011317,-0.171571836,0.005389154,-0.013101175,-0.020183206,-0.023266977,0.107365862,-0.073179938,0.158676343,-1.396155292,0.403094859
-0.972417474,-0.158011317,-0.171571836,0.005389154,-0.013101175,-0.020183206,-0.023266977,0.107365862,-0.073179938,0.158676343,-1.396155292,0.403094859
-0.972417474,-0.158011317,-0.171571836,0.005389154,-0.013101175,-0.020183206,-0.023266977,0.107365862,-0.073179938,0.158676343,-1.396155292,0.403094859
-0.972417474,-0.158011317,-0.171571836,0.005389154,-0.013101175,-0.020183206,-0.023266977,0.107365862,-0.073179938,0.158676343,-1.396155292,0.403094859
-0.972417474,-0.158011317,-0.171571836,0.005389154,-0.013101175,-0.020183206,-0.023266977,0.107365862,-0.073179938,0.158676343,-1.396155292,0.403094859
-0.972417474,-0.158011317,-0.171571836,0.005389154,-0.013101175,-0.020183206,-0.023266977,0.107365862,-0.073179938,0.158676343,-1.396155292,0.403094859
-0.972417474,-0.158011317,-0.171571836,0.005389154,-0.013101175,-0.020183206,-0.023266977,0.107365862,-0.073179938,0.158676343,-1.396155292,0.403094859
-0.972417474,-0.158011317,-0.171571836,0.005389154,-0.013101175,-0.020183206,-0.023266977,0.107365862,-0.073179938,0.158676343,-1.396155292,0.403094859
-0.972417474,-0.158011317,-0.171571836,0.005389154,-0.013101175,-0.020183206,-0.023266977,0.107365862,-0.073179938,0.158676343,-1.396155292,0.403094859
-0.970965803,-0.161284178,-0.176672027,0.012146592,-0.015336752,-0.01200062,-0.024545906,0.102028206,-0.101236664,0.161991725,-1.390810445,0.401065319
-0.970965803,-0.161284178,-0.176672027,0.012146592,-0.015336752,-0.01200062,-0.024545906,0.102028206,-0.101236664,0.161991725,-1.390810445,0.401065319
-0.970965803,-0.161284178,-0.176672027,0.012146592,-0.015336752,-0.01200062,-0.024545906,0.102028206,-0.101236664,0.161991725,-1.390810445,0.401065319
-0.970965803,-0.161284178,-0.176672027,0.012146592,-0.015336752,-0.01200062,-0.024545906,0.102028206,-0.101236664,0.161991725,-1.390810445,0.401065319
-0.970965803,-0.161284178,-0.176672027,0.012146592,-0.015336752,-0.01200062,-0.024545906,0.102028206,-0.101236664,0.161991725,-1.390810445,0.401065319
-0.970965803,-0.161284178,-0.176672027,0.012146592,-0.015336752,-0.01200062,-0.024545906,0.102028206,-0.101236664,0.161991725,-1.390810445,0.401065319
-0.970965803,-0.161284178,-0.176672027,0.012146592,-0.015336752,-0.01200062,-0.024545906,0.102028206,-0.101236664,0.161991725,-1.390810445,0.401065319
-0.970965803,-0.161284178,-0.176672027,0.012146592,-0.015336752,-0.01200062,-0.024545906,0.102028206,-0.101236664,0.161991725,-1.390810445,0.401065319
-0.970965803,-0.161284178,-0.176672027,0.012146592,-0.015336752,-0.01200062,-0.024545906,0.102028206,-0.101236664,0.161991725,-1.390810445,0.401065319
-0.969158471,-0.16643627,-0.181744337,-0.002508342,-0.007575363,-0.009324312,0.042241551,0.135240167,-0.16144152,0.167214421,-1.385421347,0.400039737
-0.969158471,-0.16643627,-0.181744337,-0.002508342,-0.007575363,-0.009324312,0.042241551,0.135240167,-0.16144152,0.167214421,-1.385421347,0.400039737
-0.969158471,-0.16643627,-0.181744337,-0.002508342,-0.007575363,-0.009324312,0.042241551,0.135240167,-0.16144152,0.167214421,-1.385421347,0.400039737
-0.969158471,-0.16643627,-0.181744337,-0.002508342,-0.007575363,-0.009324312,0.042241551,0.135240167,-0.16144152,0.167214421,-1.385421347,0.400039737
-0.969158471,-0.16643627,-0.181744337,-0.002508342,-0.007575363,-0.009324312,0.042241551,0.135240167,-0.16144152,0.167214421,-1.385421347,0.400039737
-0.969158471,-0.16643627,-0.181744337,-0.002508342,-0.007575363,-0.009324312,0.042241551,0.135240167,-0.16144152,0.167214421,-1.385421347,0.400039737
-0.966326952,-0.175902963,-0.187804684,-0.029799819,0.013274357,0.015886009,0.374235719,0.276953638,-0.227941811,0.17682296,-1.378840269,0.406384237
-0.966326952,-0.175902963,-0.187804684,-0.029799819,0.013274357,0.015886009,0.374235719,0.276953638,-0.227941811,0.17682296,-1.378840269,0.406384237
-0.966326952,-0.175902963,-0.187804684,-0.029799819,0.013274357,0.015886009,0.374235719,0.276953638,-0.227941811,0.17682296,-1.378840269,0.406384237
-0.966326952,-0.175902963,-0.187804684,-0.029799819,0.013274357,0.015886009,0.374235719,0.276953638,-0.227941811,0.17682296,-1.378840269,0.406384237
-0.966326952,-0.175902963,-0.187804684,-0.029799819,0.013274357,0.015886009,0.374235719,0.276953638,-0.227941811,0.17682296,-1.378840269,0.406384237
-0.961798668,-0.190183148,-0.196910515,-0.023753583,0.003994942,0.024106681,0.503059328,0.360306501,-0.316389084,0.191348699,-1.368855383,0.423366011
-0.961798668,-0.190183148,-0.196910515,-0.023753583,0.003994942,0.024106681,0.503059328,0.360306501,-0.316389084,0.191348699,-1.368855383,0.423366011
-0.961798668,-0.190183148,-0.196910515,-0.023753583,0.003994942,0.024106681,0.503059328,0.360306501,-0.316389084,0.191348699,-1.368855383,0.423366011
-0.961798668,-0.190183148,-0.196910515,-0.023753583,0.003994942,0.024106681,0.503059328,0.360306501,-0.316389084,0.191348699,-1.368855383,0.423366011
-0.961798668,-0.190183148,-0.196910515,-0.023753583,0.003994942,0.024106681,0.503059328,0.360306501,-0.316389084,0.191348699,-1.368855383,0.423366011
-0.961798668,-0.190183148,-0.196910515,-0.023753583,0.003994942,0.024106681,0.503059328,0.360306501,-0.316389084,0.191348699,-1.368855383,0.423366011
-0.961798668,-0.190183148,-0.196910515,-0.023753583,0.003994942,0.024106681,0.503059328,0.360306501,-0.316389084,0.191348699,-1.368855383,0.423366011
-0.961798668,-0.190183148,-0.196910515,-0.023753583,0.003994942,0.024106681,0.503059328,0.360306501,-0.316389084,0.191348699,-1.368855383,0.423366011
-0.961798668,-0.190183148,-0.196910515,-0.023753583,0.003994942,0.024106681,0.503059328,0.360306501,-0.316389084,0.191348699,-1.368855383,0.423366011
-0.961798668,-0.190183148,-0.196910515,-0.023753583,0.003994942,0.024106681,0.503059328,0.360306501,-0.316389084,0.191348699,-1.368855383,0.423366011
-0.961798668,-0.190183148,-0.196910515,-0.023753583,0.003994942,0.024106681,0.503059328,0.360306501,-0.316389084,0.191348699,-1.368855383,0.423366011
-0.961798668,-0.190183148,-0.196910515,-0.023753583,0.003994942,0.024106681,0.503059328,0.360306501,-0.316389084,0.191348699,-1.368855383,0.423366011
-0.961798668,-0.190183148,-0.196910515,-0.023753583,0.003994942,0.024106681,0.503059328,0.360306501,-0.316389084,0.191348699,-1.368855383,0.423366011
-0.956994593,-0.203390315,-0.206867054,-0.015846968,-0.024835885,0.039388418,0.114792317,0.280417353,-0.305451155,0.204819372,-1.357908591,0.433418159
-0.956994593,-0.203390315,-0.206867054,-0.015846968,-0.024835885,0.039388418,0.114792317,0.280417353,-0.305451155,0.204819372,-1.357908591,0.433418159
-0.956994593,-0.203390315,-0.206867054,-0.015846968,-0.024835885,0.039388418,0.114792317,0.280417353,-0.305451155,0.204819372,-1.357908591,0.433418159
-0.956994593,-0.203390315,-0.206867054,-0.015846968,-0.024835885,0.039388418,0.114792317,0.280417353,-0.305451155,0.204819372,-1.357908591,0.433418159
-0.956994593,-0.203390315,-0.206867054,-0.015846968,-0.024835885,0.039388418,0.114792317,0.280417353,-0.305451155,0.204819372,-1.357908591,0.433418159
-0.956994593,-0.203390315,-0.206867054,-0.015846968,-0.024835885,0.039388418,0.114792317,0.280417353,-0.305451155,0.204819372,-1.357908591,0.433418159
-0.953348517,-0.214336187,-0.212571695,-0.004173338,0.010203585,0.048267007,0.077987246,0.146597967,-0.302059829,0.216012179,-1.351411339,0.433812524
-0.953348517,-0.214336187,-0.212571695,-0.004173338,0.010203585,0.048267007,0.077987246,0.146597967,-0.302059829,0.216012179,-1.351411339,0.433812524
-0.953348517,-0.214336187,-0.212571695,-0.004173338,0.010203585,0.048267007,0.077987246,0.146597967,-0.302059829,0.216012179,-1.351411339,0.433812524
-0.950410247,-0.22528407,-0.214400396,0.006422937,0.015246272,0.045304477,-0.060902823,0.073134385,-0.246960461,0.227234589,-1.348923043,0.433396797
-0.950410247,-0.22528407,-0.214400396,0.006422937,0.015246272,0.045304477,-0.060902823,0.073134385,-0.246960461,0.227234589,-1.348923043,0.433396797
-0.950410247,-0.22528407,-0.214400396,0.006422937,0.015246272,0.045304477,-0.060902823,0.073134385,-0.246960461,0.227234589,-1.348923043,0.433396797
-0.950410247,-0.22528407,-0.214400396,0.006422937,0.015246272,0.045304477,-0.060902823,0.073134385,-0.246960461,0.227234589,-1.348923043,0.433396797
-0.950410247,-0.22528407,-0.214400396,0.006422937,0.015246272,0.045304477,-0.060902823,0.073134385,-0.246960461,0.227234589,-1.348923043,0.433396797
-0.950410247,-0.22528407,-0.214400396,0.006422937,0.015246272,0.045304477,-0.060902823,0.073134385,-0.246960461,0.227234589,-1.348923043,0.433396797
-0.950410247,-0.22528407,-0.214400396,0.006422937,0.015246272,0.045304477,-0.060902823,0.073134385,-0.246960461,0.227234589,-1.348923043,0.433396797
-0.950410247,-0.22528407,-0.214400396,0.006422937,0.015246272,0.045304477,-0.060902823,0.073134385,-0.246960461,0.227234589,-1.348923043,0.433396797
-0.950410247,-0.22528407,-0.214400396,0.006422937,0.015246272,0.045304477,-0.060902823,0.073134385,-0.246960461,0.227234589,-1.348923043,0.433396797
-0.948809028,-0.229903445,-0.216577992,0.032745063,0.004850939,0.03780812,-0.368830383,0.020665973,-0.134676069,0.231978472,-1.346378293,0.422412544
-0.948809028,-0.229903445,-0.216577992,0.032745063,0.004850939,0.03780812,-0.368830383,0.020665973,-0.134676069,0.231978472,-1.346378293,0.422412544
-0.948809028,-0.229903445,-0.216577992,0.032745063,0.004850939,0.03780812,-0.368830383,0.020665973,-0.134676069,0.231978472,-1.346378293,0.422412544
-0.948809028,-0.229903445,-0.216577992,0.032745063,0.004850939,0.03780812,-0.368830383,0.020665973,-0.134676069,0.231978472,-1.346378293,0.422412544
-0.948809028,-0.229903445,-0.216577992,0.032745063,0.004850939,0.03780812,-0.368830383,0.020665973,-0.134676069,0.231978472,-1.346378293,0.422412544
-0.948809028,-0.229903445,-0.216577992,0.032745063,0.004850939,0.03780812,-0.368830383,0.020665973,-0.134676069,0.231978472,-1.346378293,0.422412544
-0.948809028,-0.229903445,-0.216577992,0.032745063,0.004850939,0.03780812,-0.368830383,0.020665973,-0.134676069,0.231978472,-1.346378293,0.422412544
-0.948809028,-0.229903445,-0.216577992,0.032745063,0.004850939,0.03780812,-0.368830383,0.020665973,-0.134676069,0.231978472,-1.346378293,0.422412544
-0.948809028,-0.229903445,-0.216577992,0.032745063,0.004850939,0.03780812,-0.368830383,0.020665973,-0.134676069,0.231978472,-1.346378293,0.422412544
-0.948809028,-0.229903445,-0.216577992,0.032745063,0.004850939,0.03780812,-0.368830383,0.020665973,-0.134676069,0.231978472,-1.346378293,0.422412544
-0.948809028,-0.229903445,-0.216577992,0.032745063,0.004850939,0.03780812,-0.368830383,0.020665973,-0.134676069,0.231978472,-1.346378293,0.422412544
-0.948809028,-0.229903445,-0.216577992,0.032745063,0.004850939,0.03780812,-0.368830383,0.020665973,-0.134676069,0.231978472,-1.346378293,0.422412544
-0.948562026,-0.230631843,-0.216884941,0.032940745,0.041712195,0.032484412,-0.210201502,-0.042117238,-0.101014234,0.232726976,-1.346014274,0.408648728
-0.948562026,-0.230631843,-0.216884941,0.032940745,0.041712195,0.032484412,-0.210201502,-0.042117238,-0.101014234,0.232726976,-1.346014274,0.408648728
-0.948562026,-0.230631843,-0.216884941,0.032940745,0.041712195,0.032484412,-0.210201502,-0.042117238,-0.101014234,0.232726976,-1.346014274,0.408648728
-0.948562026,-0.230631843,-0.216884941,0.032940745,0.041712195,0.032484412,-0.210201502,-0.042117238,-0.101014234,0.232726976,-1.346014274,0.408648728
-0.948562026,-0.230631843,-0.216884941,0.032940745,0.041712195,0.032484412,-0.210201502,-0.042117238,-0.101014234,0.232726976,-1.346014274,0.408648728
-0.948562026,-0.230631843,-0.216884941,0.032940745,0.041712195,0.032484412,-0.210201502,-0.042117238,-0.101014234,0.232726976,-1.346014274,0.408648728
-0.948562026,-0.230631843,-0.216884941,0.032940745,0.041712195,0.032484412,-0.210201502,-0.042117238,-0.101014234,0.232726976,-1.346014274,0.408648728
-0.948562026,-0.230631843,-0.216884941,0.032940745,0.041712195,0.032484412,-0.210201502,-0.042117238,-0.101014234,0.232726976,-1.346014274,0.408648728
-0.948562026,-0.230631843,-0.216884941,0.032940745,0.041712195,0.032484412,-0.210201502,-0.042117238,-0.101014234,0.232726976,-1.346014274,0.408648728
-0.948562026,-0.230631843,-0.216884941,0.032940745,0.041712195,0.032484412,-0.210201502,-0.042117238,-0.101014234,0.232726976,-1.346014274,0.408648728
-0.948562026,-0.230631843,-0.216884941,0.032940745,0.041712195,0.032484412,-0.210201502,-0.042117238,-0.101014234,0.232726976,-1.346014274,0.408648728
-0.948562026,-0.230631843,-0.216884941,0.032940745,0.041712195,0.032484412,-0.210201502,-0.042117238,-0.101014234,0.232726976,-1.346014274,0.408648728
-0.948591292,-0.232446045,-0.214810416,0.015071452,0.008309066,-0.001511455,-0.179176271,-0.044783074,-0.077265762,0.234591861,-1.348100267,0.402207661
-0.948591292,-0.232446045,-0.214810416,0.015071452,0.008309066,-0.001511455,-0.179176271,-0.044783074,-0.077265762,0.234591861,-1.348100267,0.402207661
-0.948591292,-0.232446045,-0.214810416,0.015071452,0.008309066,-0.001511455,-0.179176271,-0.044783074,-0.077265762,0.234591861,-1.348100267,0.402207661
-0.948591292,-0.232446045,-0.214810416,0.015071452,0.008309066,-0.001511455,-0.179176271,-0.044783074,-0.077265762,0.234591861,-1.348100267,0.402207661
-0.948591292,-0.232446045,-0.214810416,0.015071452,0.008309066,-0.001511455,-0.179176271,-0.044783074,-0.077265762,0.234591861,-1.348100267,0.402207661
-0.948591292,-0.232446045,-0.214810416,0.015071452,0.008309066,-0.001511455,-0.179176271,-0.044783074,-0.077265762,0.234591861,-1.348100267,0.402207661
-0.948591292,-0.232446045,-0.214810416,0.015071452,0.008309066,-0.001511455,-0.179176271,-0.044783074,-0.077265762,0.234591861,-1.348100267,0.402207661
-0.948591292,-0.232446045,-0.214810416,0.015071452,0.008309066,-0.001511455,-0.179176271,-0.044783074,-0.077265762,0.234591861,-1.348100267,0.402207661
-0.948591292,-0.232446045,-0.214810416,0.015071452,0.008309066,-0.001511455,-0.179176271,-0.044783074,-0.077265762,0.234591861,-1.348100267,0.402207661
-0.948591292,-0.232446045,-0.214810416,0.015071452,0.008309066,-0.001511455,-0.179176271,-0.044783074,-0.077265762,0.234591861,-1.348100267,0.402207661
-0.948591292,-0.232446045,-0.214810416,0.015071452,0.008309066,-0.001511455,-0.179176271,-0.044783074,-0.077265762,0.234591861,-1.348100267,0.402207661
-0.948113859,-0.230853334,-0.218602151,-0.005089819,-0.055768356,0.009116173,-0.665188551,0.095789,-0.079056837,0.232954617,-1.344191116,0.384688993
-0.948113859,-0.230853334,-0.218602151,-0.005089819,-0.055768356,0.009116173,-0.665188551,0.095789,-0.079056837,0.232954617,-1.344191116,0.384688993
-0.948113859,-0.230853334,-0.218602151,-0.005089819,-0.055768356,0.009116173,-0.665188551,0.095789,-0.079056837,0.232954617,-1.344191116,0.384688993
-0.948113859,-0.230853334,-0.218602151,-0.005089819,-0.055768356,0.009116173,-0.665188551,0.095789,-0.079056837,0.232954617,-1.344191116,0.384688993
-0.948113859,-0.230853334,-0.218602151,-0.005089819,-0.055768356,0.009116173,-0.665188551,0.095789,-0.079056837,0.232954617,-1.344191116,0.384688993
-0.948113859,-0.230853334,-0.218602151,-0.005089819,-0.055768356,0.009116173,-0.665188551,0.095789,-0.079056837,0.232954617,-1.344191116,0.384688993
-0.948113859,-0.230853334,-0.218602151,-0.005089819,-0.055768356,0.009116173,-0.665188551,0.095789,-0.079056837,0.232954617,-1.344191116,0.384688993
-0.948113859,-0.230853334,-0.218602151,-0.005089819,-0.055768356,0.009116173,-0.665188551,0.095789,-0.079056837,0.232954617,-1.344191116,0.384688993
-0.948113859,-0.230853334,-0.218602151,-0.005089819,-0.055768356,0.009116173,-0.665188551,0.095789,-0.079056837,0.232954617,-1.344191116,0.384688993
-0.948113859,-0.230853334,-0.218602151,-0.005089819,-0.055768356,0.009116173,-0.665188551,0.095789,-0.079056837,0.232954617,-1.344191116,0.384688993
-0.948113859,-0.230853334,-0.218602151,-0.005089819,-0.055768356,0.009116173,-0.665188551,0.095789,-0.079056837,0.232954617,-1.344191116,0.384688993
-0.948113859,-0.230853334,-0.218602151,-0.005089819,-0.055768356,0.009116173,-0.665188551,0.095789,-0.079056837,0.232954617,-1.344191116,0.384688993
-0.946021676,-0.230811134,-0.22752884,-0.001795828,0.039358467,0.012794018,-0.285256356,0.111118205,-0.202626511,0.232911244,-1.334768005,0.36208295
-0.946021676,-0.230811134,-0.22752884,-0.001795828,0.039358467,0.012794018,-0.285256356,0.111118205,-0.202626511,0.232911244,-1.334768005,0.36208295
-0.946021676,-0.230811134,-0.22752884,-0.001795828,0.039358467,0.012794018,-0.285256356,0.111118205,-0.202626511,0.232911244,-1.334768005,0.36208295
-0.946021676,-0.230811134,-0.22752884,-0.001795828,0.039358467,0.012794018,-0.285256356,0.111118205,-0.202626511,0.232911244,-1.334768005,0.36208295
-0.946021676,-0.230811134,-0.22752884,-0.001795828,0.039358467,0.012794018,-0.285256356,0.111118205,-0.202626511,0.232911244,-1.334768005,0.36208295
-0.946021676,-0.230811134,-0.22752884,-0.001795828,0.039358467,0.012794018,-0.285256356,0.111118205,-0.202626511,0.232911244,-1.334768005,0.36208295
-0.946021676,-0.230811134,-0.22752884,-0.001795828,0.039358467,0.012794018,-0.285256356,0.111118205,-0.202626511,0.232911244,-1.334768005,0.36208295
-0.946021676,-0.230811134,-0.22752884,-0.001795828,0.039358467,0.012794018,-0.285256356,0.111118205,-0.202626511,0.232911244,-1.334768005,0.36208295
-0.942632735,-0.241789922,-0.230176836,0.00830394,0.026228309,0.005005002,0.146547094,0.055344395,-0.323260367,0.24421008,-1.331297987,0.358228933
-0.942632735,-0.241789922,-0.230176836,0.00830394,0.026228309,0.005005002,0.146547094,0.055344395,-0.323260367,0.24421008,-1.331297987,0.358228933
-0.942632735,-0.241789922,-0.230176836,0.00830394,0.026228309,0.005005002,0.146547094,0.055344395,-0.323260367,0.24421008,-1.331297987,0.358228933
-0.942632735,-0.241789922,-0.230176836,0.00830394,0.026228309,0.005005002,0.146547094,0.055344395,-0.323260367,0.24421008,-1.331297987,0.358228933
-0.942632735,-0.241789922,-0.230176836,0.00830394,0.026228309,0.005005002,0.146547094,0.055344395,-0.323260367,0.24421008,-1.331297987,0.358228933
-0.942632735,-0.241789922,-0.230176836,0.00830394,0.026228309,0.005005002,0.146547094,0.055344395,-0.323260367,0.24421008,-1.331297987,0.358228933
-0.942632735,-0.241789922,-0.230176836,0.00830394,0.026228309,0.005005002,0.146547094,0.055344395,-0.323260367,0.24421008,-1.331297987,0.358228933
-0.942632735,-0.241789922,-0.230176836,0.00830394,0.026228309,0.005005002,0.146547094,0.055344395,-0.323260367,0.24421008,-1.331297987,0.358228933
-0.942632735,-0.241789922,-0.230176836,0.00830394,0.026228309,0.005005002,0.146547094,0.055344395,-0.323260367,0.24421008,-1.331297987,0.358228933
-0.942632735,-0.241789922,-0.230176836,0.00830394,0.026228309,0.005005002,0.146547094,0.055344395,-0.323260367,0.24421008,-1.331297987,0.358228933
-0.939043701,-0.25339976,-0.232348084,-0.001877069,-0.002918154,0.015416145,-0.208499297,0.115103178,-0.310703069,0.256193106,-1.328237442,0.356274467
-0.939043701,-0.25339976,-0.232348084,-0.001877069,-0.002918154,0.015416145,-0.208499297,0.115103178,-0.310703069,0.256193106,-1.328237442,0.356274467
-0.939043701,-0.25339976,-0.232348084,-0.001877069,-0.002918154,0.015416145,-0.208499297,0.115103178,-0.310703069,0.256193106,-1.328237442,0.356274467
-0.936034322,-0.258246511,-0.239057988,0.009807467,-0.007562429,0.001969457,-0.351714581,0.043412961,-0.264361352,0.261206701,-1.320746993,0.33865665
-0.936034322,-0.258246511,-0.239057988,0.009807467,-0.007562429,0.001969457,-0.351714581,0.043412961,-0.264361352,0.261206701,-1.320746993,0.33865665
-0.936034322,-0.258246511,-0.239057988,0.009807467,-0.007562429,0.001969457,-0.351714581,0.043412961,-0.264361352,0.261206701,-1.320746993,0.33865665
-0.936034322,-0.258246511,-0.239057988,0.009807467,-0.007562429,0.001969457,-0.351714581,0.043412961,-0.264361352,0.261206701,-1.320746993,0.33865665
-0.936034322,-0.258246511,-0.239057988,0.009807467,-0.007562429,0.001969457,-0.351714581,0.043412961,-0.264361352,0.261206701,-1.320746993,0.33865665
-0.936034322,-0.258246511,-0.239057988,0.009807467,-0.007562429,0.001969457,-0.351714581,0.043412961,-0.264361352,0.261206701,-1.320746993,0.33865665
-0.936034322,-0.258246511,-0.239057988,0.009807467,-0.007562429,0.001969457,-0.351714581,0.043412961,-0.264361352,0.261206701,-1.320746993,0.33865665
-0.936034322,-0.258246511,-0.239057988,0.009807467,-0.007562429,0.001969457,-0.351714581,0.043412961,-0.264361352,0.261206701,-1.320746993,0.33865665
-0.936034322,-0.258246511,-0.239057988,0.009807467,-0.007562429,0.001969457,-0.351714581,0.043412961,-0.264361352,0.261206701,-1.320746993,0.33865665
-0.933537543,-0.265746832,-0.240595967,0.005556583,0.026259422,0.004483342,-0.007544539,0.019653862,-0.252226651,0.268978526,-1.318560383,0.329933505
-0.933537543,-0.265746832,-0.240595967,0.005556583,0.026259422,0.004483342,-0.007544539,0.019653862,-0.252226651,0.268978526,-1.318560383,0.329933505
-0.933537543,-0.265746832,-0.240595967,0.005556583,0.026259422,0.004483342,-0.007544539,0.019653862,-0.252226651,0.268978526,-1.318560383,0.329933505
-0.933537543,-0.265746832,-0.240595967,0.005556583,0.026259422,0.004483342,-0.007544539,0.019653862,-0.252226651,0.268978526,-1.318560383,0.329933505
-0.933537543,-0.265746832,-0.240595967,0.005556583,0.026259422,0.004483342,-0.007544539,0.019653862,-0.252226651,0.268978526,-1.318560383,0.329933505
-0.933537543,-0.265746832,-0.240595967,0.005556583,0.026259422,0.004483342,-0.007544539,0.019653862,-0.252226651,0.268978526,-1.318560383,0.329933505
-0.933537543,-0.265746832,-0.240595967,0.005556583,0.026259422,0.004483342,-0.007544539,0.019653862,-0.252226651,0.268978526,-1.318560383,0.329933505
-0.933537543,-0.265746832,-0.240595967,0.005556583,0.026259422,0.004483342,-0.007544539,0.019653862,-0.252226651,0.268978526,-1.318560383,0.329933505
-0.933537543,-0.265746832,-0.240595967,0.005556583,0.026259422,0.004483342,-0.007544539,0.019653862,-0.252226651,0.268978526,-1.318560383,0.329933505
-0.930668712,-0.273811817,-0.242658138,-0.006009281,-0.040199369,0.002272785,-0.293836772,0.04013104,-0.192802519,0.277354091,-1.315739691,0.323385864
-0.930668712,-0.273811817,-0.242658138,-0.006009281,-0.040199369,0.002272785,-0.293836772,0.04013104,-0.192802519,0.277354091,-1.315739691,0.323385864
-0.930668712,-0.273811817,-0.242658138,-0.006009281,-0.040199369,0.002272785,-0.293836772,0.04013104,-0.192802519,0.277354091,-1.315739691,0.323385864
-0.930668712,-0.273811817,-0.242658138,-0.006009281,-0.040199369,0.002272785,-0.293836772,0.04013104,-0.192802519,0.277354091,-1.315739691,0.323385864
-0.930668712,-0.273811817,-0.242658138,-0.006009281,-0.040199369,0.002272785,-0.293836772,0.04013104,-0.192802519,0.277354091,-1.315739691,0.323385864
-0.930668712,-0.273811817,-0.242658138,-0.006009281,-0.040199369,0.002272785,-0.293836772,0.04013104,-0.192802519,0.277354091,-1.315739691,0.323385864
-0.930668712,-0.273811817,-0.242658138,-0.006009281,-0.040199369,0.002272785,-0.293836772,0.04013104,-0.192802519,0.277354091,-1.315739691,0.323385864
-0.930668712,-0.273811817,-0.242658138,-0.006009281,-0.040199369,0.002272785,-0.293836772,0.04013104,-0.192802519,0.277354091,-1.315739691,0.323385864
-0.930668712,-0.273811817,-0.242658138,-0.006009281,-0.040199369,0.002272785,-0.293836772,0.04013104,-0.192802519,0.277354091,-1.315739691,0.323385864
-0.930668712,-0.273811817,-0.242658138,-0.006009281,-0.040199369,0.002272785,-0.293836772,0.04013104,-0.192802519,0.277354091,-1.315739691,0.323385864
-0.930668712,-0.273811817,-0.242658138,-0.006009281,-0.040199369,0.002272785,-0.293836772,0.04013104,-0.192802519,0.277354091,-1.315739691,0.323385864
-0.930668712,-0.273811817,-0.242658138,-0.006009281,-0.040199369,0.002272785,-0.293836772,0.04013104,-0.192802519,0.277354091,-1.315739691,0.323385864
-0.929742455,-0.273379087,-0.24666369,0.006889045,0.043382764,0.013281941,-0.345604837,-0.064641483,-0.102206692,0.276904181,-1.31146727,0.306481634
-0.929742455,-0.273379087,-0.24666369,0.006889045,0.043382764,0.013281941,-0.345604837,-0.064641483,-0.102206692,0.276904181,-1.31146727,0.306481634
-0.929742455,-0.273379087,-0.24666369,0.006889045,0.043382764,0.013281941,-0.345604837,-0.064641483,-0.102206692,0.276904181,-1.31146727,0.306481634
-0.929742455,-0.273379087,-0.24666369,0.006889045,0.043382764,0.013281941,-0.345604837,-0.064641483,-0.102206692,0.276904181,-1.31146727,0.306481634
-0.929742455,-0.273379087,-0.24666369,0.006889045,0.043382764,0.013281941,-0.345604837,-0.064641483,-0.102206692,0.276904181,-1.31146727,0.306481634
-0.929742455,-0.273379087,-0.24666369,0.006889045,0.043382764,0.013281941,-0.345604837,-0.064641483,-0.102206692,0.276904181,-1.31146727,0.306481634
-0.929742455,-0.273379087,-0.24666369,0.006889045,0.043382764,0.013281941,-0.345604837,-0.064641483,-0.102206692,0.276904181,-1.31146727,0.306481634
-0.929742455,-0.273379087,-0.24666369,0.006889045,0.043382764,0.013281941,-0.345604837,-0.064641483,-0.102206692,0.276904181,-1.31146727,0.306481634
-0.929742455,-0.273379087,-0.24666369,0.006889045,0.043382764,0.013281941,-0.345604837,-0.064641483,-0.102206692,0.276904181,-1.31146727,0.306481634
-0.929742455,-0.273379087,-0.24666369,0.006889045,0.043382764,0.013281941,-0.345604837,-0.064641483,-0.102206692,0.276904181,-1.31146727,0.306481634
-0.929742455,-0.273379087,-0.24666369,0.006889045,0.043382764,0.013281941,-0.345604837,-0.064641483,-0.102206692,0.276904181,-1.31146727,0.306481634
-0.929742455,-0.273379087,-0.24666369,0.006889045,0.043382764,0.013281941,-0.345604837,-0.064641483,-0.102206692,0.276904181,-1.31146727,0.306481634
-0.929742455,-0.273379087,-0.24666369,0.006889045,0.043382764,0.013281941,-0.345604837,-0.064641483,-0.102206692,0.276904181,-1.31146727,0.306481634
-0.929742455,-0.273379087,-0.24666369,0.006889045,0.043382764,0.013281941,-0.345604837,-0.064641483,-0.102206692,0.276904181,-1.31146727,0.306481634
-0.929742455,-0.273379087,-0.24666369,0.006889045,0.043382764,0.013281941,-0.345604837,-0.064641483,-0.102206692,0.276904181,-1.31146727,0.306481634
-0.929746389,-0.274489611,-0.245412603,0.006908298,0.060530365,0.021704912,-0.127670541,-0.120106943,-0.073382072,0.2780589,-1.312725883,0.296816276
-0.929746389,-0.274489611,-0.245412603,0.006908298,0.060530365,0.021704912,-0.127670541,-0.120106943,-0.073382072,0.2780589,-1.312725883,0.296816276
-0.929746389,-0.274489611,-0.245412603,0.006908298,0.060530365,0.021704912,-0.127670541,-0.120106943,-0.073382072,0.2780589,-1.312725883,0.296816276
-0.929746389,-0.274489611,-0.245412603,0.006908298,0.060530365,0.021704912,-0.127670541,-0.120106943,-0.073382072,0.2780589,-1.312725883,0.296816276
-0.929746389,-0.274489611,-0.245412603,0.006908298,0.060530365,0.021704912,-0.127670541,-0.120106943,-0.073382072,0.2780589,-1.312725883,0.296816276
-0.929746389,-0.274489611,-0.245412603,0.006908298,0.060530365,0.021704912,-0.127670541,-0.120106943,-0.073382072,0.2780589,-1.312725883,0.296816276
-0.929746389,-0.274489611,-0.245412603,0.006908298,0.060530365,0.021704912,-0.127670541,-0.120106943,-0.073382072,0.2780589,-1.312725883,0.296816276
-0.929746389,-0.274489611,-0.245412603,0.006908298,0.060530365,0.021704912,-0.127670541,-0.120106943,-0.073382072,0.2780589,-1.312725883,0.296816276
-0.929746389,-0.274489611,-0.245412603,0.006908298,0.060530365,0.021704912,-0.127670541,-0.120106943,-0.073382072,0.2780589,-1.312725883,0.296816276
-0.930178404,-0.275633335,-0.242475763,-0.018950284,0.043165237,0.009444833,-0.026319904,-0.060716972,-0.054769024,0.279248505,-1.315794598,0.293016309
-0.930178404,-0.275633335,-0.242475763,-0.018950284,0.043165237,0.009444833,-0.026319904,-0.060716972,-0.054769024,0.279248505,-1.315794598,0.293016309
-0.930178404,-0.275633335,-0.242475763,-0.018950284,0.043165237,0.009444833,-0.026319904,-0.060716972,-0.054769024,0.279248505,-1.315794598,0.293016309
-0.930178404,-0.275633335,-0.242475763,-0.018950284,0.043165237,0.009444833,-0.026319904,-0.060716972,-0.054769024,0.279248505,-1.315794598,0.293016309
-0.930178404,-0.275633335,-0.242475763,-0.018950284,0.043165237,0.009444833,-0.026319904,-0.060716972,-0.054769024,0.279248505,-1.315794598,0.293016309
-0.930178404,-0.275633335,-0.242475763,-0.018950284,0.043165237,0.009444833,-0.026319904,-0.060716972,-0.054769024,0.279248505,-1.315794598,0.293016309
-0.930178404,-0.275633335,-0.242475763,-0.018950284,0.043165237,0.009444833,-0.026319904,-0.060716972,-0.054769024,0.279248505,-1.315794598,0.293016309
-0.930178404,-0.275633335,-0.242475763,-0.018950284,0.043165237,0.009444833,-0.026319904,-0.060716972,-0.054769024,0.279248505,-1.315794598,0.293016309
-0.930178404,-0.275633335,-0.242475763,-0.018950284,0.043165237,0.009444833,-0.026319904,-0.060716972,-0.054769024,0.279248505,-1.315794598,0.293016309
-0.930178404,-0.275633335,-0.242475763,-0.018950284,0.043165237,0.009444833,-0.026319904,-0.060716972,-0.054769024,0.279248505,-1.315794598,0.293016309
-0.930178404,-0.275633335,-0.242475763,-0.018950284,0.043165237,0.009444833,-0.026319904,-0.060716972,-0.054769024,0.279248505,-1.315794598,0.293016309
-0.930766761,-0.275708973,-0.240120858,-0.018483877,0.010114074,-0.004812062,0.111014597,0.012843141,-0.056857426,0.279327196,-1.318319626,0.294617549
-0.930766761,-0.275708973,-0.240120858,-0.018483877,0.010114074,-0.004812062,0.111014597,0.012843141,-0.056857426,0.279327196,-1.318319626,0.294617549
-0.930766761,-0.275708973,-0.240120858,-0.018483877,0.010114074,-0.004812062,0.111014597,0.012843141,-0.056857426,0.279327196,-1.318319626,0.294617549
-0.930766761,-0.275708973,-0.240120858,-0.018483877,0.010114074,-0.004812062,0.111014597,0.012843141,-0.056857426,0.279327196,-1.318319626,0.294617549
-0.930766761,-0.275708973,-0.240120858,-0.018483877,0.010114074,-0.004812062,0.111014597,0.012843141,-0.056857426,0.279327196,-1.318319626,0.294617549
-0.930766761,-0.275708973,-0.240120858,-0.018483877,0.010114074,-0.004812062,0.111014597,0.012843141,-0.056857426,0.279327196,-1.318319626,0.294617549
-0.930766761,-0.275708973,-0.240120858,-0.018483877,0.010114074,-0.004812062,0.111014597,0.012843141,-0.056857426,0.279327196,-1.318319626,0.294617549
-0.930766761,-0.275708973,-0.240120858,-0.018483877,0.010114074,-0.004812062,0.111014597,0.012843141,-0.056857426,0.279327196,-1.318319626,0.294617549
-0.930766761,-0.275708973,-0.240120858,-0.018483877,0.010114074,-0.004812062,0.111014597,0.012843141,-0.056857426,0.279327196,-1.318319626,0.294617549
-0.930766761,-0.275708973,-0.240120858,-0.018483877,0.010114074,-0.004812062,0.111014597,0.012843141,-0.056857426,0.279327196,-1.318319626,0.294617549
-0.930766761,-0.275708973,-0.240120858,-0.018483877,0.010114074,-0.004812062,0.111014597,0.012843141,-0.056857426,0.279327196,-1.318319626,0.294617549
-0.930766761,-0.275708973,-0.240120858,-0.018483877,0.010114074,-0.004812062,0.111014597,0.012843141,-0.056857426,0.279327196,-1.318319626,0.294617549
-0.930766761,-0.275708973,-0.240120858,-0.018483877,0.010114074,-0.004812062,0.111014597,0.012843141,-0.056857426,0.279327196,-1.318319626,0.294617549
-0.930766761,-0.275708973,-0.240120858,-0.018483877,0.010114074,-0.004812062,0.111014597,0.012843141,-0.056857426,0.279327196,-1.318319626,0.294617549
-0.930766761,-0.275708973,-0.240120858,-0.018483877,0.010114074,-0.004812062,0.111014597,0.012843141,-0.056857426,0.279327196,-1.318319626,0.294617549
-0.930766761,-0.275708973,-0.240120858,-0.018483877,0.010114074,-0.004812062,0.111014597,0.012843141,-0.056857426,0.279327196,-1.318319626,0.294617549
-0.930766761,-0.275708973,-0.240120858,-0.018483877,0.010114074,-0.004812062,0.111014597,0.012843141,-0.056857426,0.279327196,-1.318319626,0.294617549
-0.930766761,-0.275708973,-0.240120858,-0.018483877,0.010114074,-0.004812062,0.111014597,0.012843141,-0.056857426,0.279327196,-1.318319626,0.294617549
-0.930766761,-0.275708973,-0.240120858,-0.018483877,0.010114074,-0.004812062,0.111014597,0.012843141,-0.056857426,0.279327196,-1.318319626,0.294617549
-0.930766761,-0.275708973,-0.240120858,-0.018483877,0.010114074,-0.004812062,0.111014597,0.012843141,-0.056857426,0.279327196,-1.318319626,0.294617549
-0.930766761,-0.275708973,-0.240120858,-0.018483877,0.010114074,-0.004812062,0.111014597,0.012843141,-0.056857426,0.279327196,-1.318319626,0.294617549
-0.930543959,-0.276307136,-0.240296572,-0.005980551,-0.023284256,-0.022626817,-0.052962955,0.037428949,-0.013378923,0.279949506,-1.318084673,0.296394701
-0.930543959,-0.276307136,-0.240296572,-0.005980551,-0.023284256,-0.022626817,-0.052962955,0.037428949,-0.013378923,0.279949506,-1.318084673,0.296394701
-0.930543959,-0.276307136,-0.240296572,-0.005980551,-0.023284256,-0.022626817,-0.052962955,0.037428949,-0.013378923,0.279949506,-1.318084673,0.296394701
-0.930543959,-0.276307136,-0.240296572,-0.005980551,-0.023284256,-0.022626817,-0.052962955,0.037428949,-0.013378923,0.279949506,-1.318084673,0.296394701
-0.930543959,-0.276307136,-0.240296572,-0.005980551,-0.023284256,-0.022626817,-0.052962955,0.037428949,-0.013378923,0.279949506,-1.318084673,0.296394701
-0.930543959,-0.276307136,-0.240296572,-0.005980551,-0.023284256,-0.022626817,-0.052962955,0.037428949,-0.013378923,0.279949506,-1.318084673,0.296394701
-0.930543959,-0.276307136,-0.240296572,-0.005980551,-0.023284256,-0.022626817,-0.052962955,0.037428949,-0.013378923,0.279949506,-1.318084673,0.296394701
-0.930543959,-0.276307136,-0.240296572,-0.005980551,-0.023284256,-0.022626817,-0.052962955,0.037428949,-0.013378923,0.279949506,-1.318084673,0.296394701
-0.930543959,-0.276307136,-0.240296572,-0.005980551,-0.023284256,-0.022626817,-0.052962955,0.037428949,-0.013378923,0.279949506,-1.318084673,0.296394701
-0.930595875,-0.274117172,-0.242592692,0.009955764,-0.015586495,-0.030584574,-0.096123524,0.015414631,-0.003839959,0.277671594,-1.315786437,0.291645962
-0.930595875,-0.274117172,-0.242592692,0.009955764,-0.015586495,-0.030584574,-0.096123524,0.015414631,-0.003839959,0.277671594,-1.315786437,0.291645962
-0.930595875,-0.274117172,-0.242592692,0.009955764,-0.015586495,-0.030584574,-0.096123524,0.015414631,-0.003839959,0.277671594,-1.315786437,0.291645962
-0.930194616,-0.273984194,-0.244276151,0.005251527,-0.010836661,-0.015992165,-0.016714361,0.067197189,0.031448897,0.277533332,-1.313987362,0.290022348
-0.930194616,-0.273984194,-0.244276151,0.005251527,-0.010836661,-0.015992165,-0.016714361,0.067197189,0.031448897,0.277533332,-1.313987362,0.290022348
-0.930194616,-0.273984194,-0.244276151,0.005251527,-0.010836661,-0.015992165,-0.016714361,0.067197189,0.031448897,0.277533332,-1.313987362,0.290022348
-0.925963402,-0.26734069,-0.266684741,0.030866563,0.06537506,0.348869383,-0.596253812,0.671014428,-0.064062715,0.270632212,-1.2903775,0.269974084
-0.925963402,-0.26734069,-0.266684741,0.030866563,0.06537506,0.348869383,-0.596253812,0.671014428,-0.064062715,0.270632212,-1.2903775,0.269974084
-0.925963402,-0.26734069,-0.266684741,0.030866563,0.06537506,0.348869383,-0.596253812,0.671014428,-0.064062715,0.270632212,-1.2903775,0.269974084
-0.921745598,-0.267034084,-0.281207919,0.104193985,-0.073939085,-0.015315354,-0.060752284,-0.205073506,-0.145782977,0.270314026,-1.27468376,0.256847692
-0.921745598,-0.267034084,-0.281207919,0.104193985,-0.073939085,-0.015315354,-0.060752284,-0.205073506,-0.145782977,0.270314026,-1.27468376,0.256847692
-0.921745598,-0.267034084,-0.281207919,0.104193985,-0.073939085,-0.015315354,-0.060752284,-0.205073506,-0.145782977,0.270314026,-1.27468376,0.256847692
-0.921745598,-0.267034084,-0.281207919,0.104193985,-0.073939085,-0.015315354,-0.060752284,-0.205073506,-0.145782977,0.270314026,-1.27468376,0.256847692
-0.921745598,-0.267034084,-0.281207919,0.104193985,-0.073939085,-0.015315354,-0.060752284,-0.205073506,-0.145782977,0.270314026,-1.27468376,0.256847692
-0.921745598,-0.267034084,-0.281207919,0.104193985,-0.073939085,-0.015315354,-0.060752284,-0.205073506,-0.145782977,0.270314026,-1.27468376,0.256847692
-0.921745598,-0.267034084,-0.281207919,0.104193985,-0.073939085,-0.015315354,-0.060752284,-0.205073506,-0.145782977,0.270314026,-1.27468376,0.256847692
-0.921745598,-0.267034084,-0.281207919,0.104193985,-0.073939085,-0.015315354,-0.060752284,-0.205073506,-0.145782977,0.270314026,-1.27468376,0.256847692
-0.921745598,-0.267034084,-0.281207919,0.104193985,-0.073939085,-0.015315354,-0.060752284,-0.205073506,-0.145782977,0.270314026,-1.27468376,0.256847692
-0.921745598,-0.267034084,-0.281207919,0.104193985,-0.073939085,-0.015315354,-0.060752284,-0.205073506,-0.145782977,0.270314026,-1.27468376,0.256847692
-0.921745598,-0.267034084,-0.281207919,0.104193985,-0.073939085,-0.015315354,-0.060752284,-0.205073506,-0.145782977,0.270314026,-1.27468376,0.256847692
-0.921745598,-0.267034084,-0.281207919,0.104193985,-0.073939085,-0.015315354,-0.060752284,-0.205073506,-0.145782977,0.270314026,-1.27468376,0.256847692
-0.92831707,-0.270604312,-0.254952818,0.078538895,0.046788126,-0.136831045,-0.132579833,-0.175097212,-0.245166123,0.274020716,-1.302765015,0.264954991
-0.92831707,-0.270604312,-0.254952818,0.078538895,0.046788126,-0.136831045,-0.132579833,-0.175097212,-0.245166123,0.274020716,-1.302765015,0.264954991
-0.92831707,-0.270604312,-0.254952818,0.078538895,0.046788126,-0.136831045,-0.132579833,-0.175097212,-0.245166123,0.274020716,-1.302765015,0.264954991
-0.92831707,-0.270604312,-0.254952818,0.078538895,0.046788126,-0.136831045,-0.132579833,-0.175097212,-0.245166123,0.274020716,-1.302765015,0.264954991
-0.92831707,-0.270604312,-0.254952818,0.078538895,0.046788126,-0.136831045,-0.132579833,-0.175097212,-0.245166123,0.274020716,-1.302765015,0.264954991
-0.92831707,-0.270604312,-0.254952818,0.078538895,0.046788126,-0.136831045,-0.132579833,-0.175097212,-0.245166123,0.274020716,-1.302765015,0.264954991
-0.92831707,-0.270604312,-0.254952818,0.078538895,0.046788126,-0.136831045,-0.132579833,-0.175097212,-0.245166123,0.274020716,-1.302765015,0.264954991
-0.92831707,-0.270604312,-0.254952818,0.078538895,0.046788126,-0.136831045,-0.132579833,-0.175097212,-0.245166123,0.274020716,-1.302765015,0.264954991
-0.92831707,-0.270604312,-0.254952818,0.078538895,0.046788126,-0.136831045,-0.132579833,-0.175097212,-0.245166123,0.274020716,-1.302765015,0.264954991
-0.92831707,-0.270604312,-0.254952818,0.078538895,0.046788126,-0.136831045,-0.132579833,-0.175097212,-0.245166123,0.274020716,-1.302765015,0.264954991
-0.92831707,-0.270604312,-0.254952818,0.078538895,0.046788126,-0.136831045,-0.132579833,-0.175097212,-0.245166123,0.274020716,-1.302765015,0.264954991
-0.92831707,-0.270604312,-0.254952818,0.078538895,0.046788126,-0.136831045,-0.132579833,-0.175097212,-0.245166123,0.274020716,-1.302765015,0.264954991
-0.92831707,-0.270604312,-0.254952818,0.078538895,0.046788126,-0.136831045,-0.132579833,-0.175097212,-0.245166123,0.274020716,-1.302765015,0.264954991
-0.92831707,-0.270604312,-0.254952818,0.078538895,0.046788126,-0.136831045,-0.132579833,-0.175097212,-0.245166123,0.274020716,-1.302765015,0.264954991
-0.925937235,-0.269864142,-0.26422286,0.083742917,0.057553142,-0.024930716,-0.333383262,0.080668785,-0.131011337,0.273251943,-1.292826841,0.249919007
-0.925937235,-0.269864142,-0.26422286,0.083742917,0.057553142,-0.024930716,-0.333383262,0.080668785,-0.131011337,0.273251943,-1.292826841,0.249919007
-0.925937235,-0.269864142,-0.26422286,0.083742917,0.057553142,-0.024930716,-0.333383262,0.080668785,-0.131011337,0.273251943,-1.292826841,0.249919007
-0.925937235,-0.269864142,-0.26422286,0.083742917,0.057553142,-0.024930716,-0.333383262,0.080668785,-0.131011337,0.273251943,-1.292826841,0.249919007
-0.925937235,-0.269864142,-0.26422286,0.083742917,0.057553142,-0.024930716,-0.333383262,0.080668785,-0.131011337,0.273251943,-1.292826841,0.249919007
-0.925937235,-0.269864142,-0.26422286,0.083742917,0.057553142,-0.024930716,-0.333383262,0.080668785,-0.131011337,0.273251943,-1.292826841,0.249919007
-0.925937235,-0.269864142,-0.26422286,0.083742917,0.057553142,-0.024930716,-0.333383262,0.080668785,-0.131011337,0.273251943,-1.292826841,0.249919007
-0.925937235,-0.269864142,-0.26422286,0.083742917,0.057553142,-0.024930716,-0.333383262,0.080668785,-0.131011337,0.273251943,-1.292826841,0.249919007
-0.925937235,-0.269864142,-0.26422286,0.083742917,0.057553142,-0.024930716,-0.333383262,0.080668785,-0.131011337,0.273251943,-1.292826841,0.249919007
-0.925937235,-0.269864142,-0.26422286,0.083742917,0.057553142,-0.024930716,-0.333383262,0.080668785,-0.131011337,0.273251943,-1.292826841,0.249919007
-0.925937235,-0.269864142,-0.26422286,0.083742917,0.057553142,-0.024930716,-0.333383262,0.080668785,-0.131011337,0.273251943,-1.292826841,0.249919007
-0.925937235,-0.269864142,-0.26422286,0.083742917,0.057553142,-0.024930716,-0.333383262,0.080668785,-0.131011337,0.273251943,-1.292826841,0.249919007
-0.925937235,-0.269864142,-0.26422286,0.083742917,0.057553142,-0.024930716,-0.333383262,0.080668785,-0.131011337,0.273251943,-1.292826841,0.249919007
-0.925937235,-0.269864142,-0.26422286,0.083742917,0.057553142,-0.024930716,-0.333383262,0.080668785,-0.131011337,0.273251943,-1.292826841,0.249919007
-0.925937235,-0.269864142,-0.26422286,0.083742917,0.057553142,-0.024930716,-0.333383262,0.080668785,-0.131011337,0.273251943,-1.292826841,0.249919007
-0.923171639,-0.270494074,-0.273106396,-0.051514626,0.023911834,-0.001703918,-0.203834593,0.249105692,-0.068298526,0.273906187,-1.28316508,0.234300028
-0.923171639,-0.270494074,-0.273106396,-0.051514626,0.023911834,-0.001703918,-0.203834593,0.249105692,-0.068298526,0.273906187,-1.28316508,0.234300028
-0.923171639,-0.270494074,-0.273106396,-0.051514626,0.023911834,-0.001703918,-0.203834593,0.249105692,-0.068298526,0.273906187,-1.28316508,0.234300028
-0.923171639,-0.270494074,-0.273106396,-0.051514626,0.023911834,-0.001703918,-0.203834593,0.249105692,-0.068298526,0.273906187,-1.28316508,0.234300028
-0.923171639,-0.270494074,-0.273106396,-0.051514626,0.023911834,-0.001703918,-0.203834593,0.249105692,-0.068298526,0.273906187,-1.28316508,0.234300028
-0.923171639,-0.270494074,-0.273106396,-0.051514626,0.023911834,-0.001703918,-0.203834593,0.249105692,-0.068298526,0.273906187,-1.28316508,0.234300028
-0.923171639,-0.270494074,-0.273106396,-0.051514626,0.023911834,-0.001703918,-0.203834593,0.249105692,-0.068298526,0.273906187,-1.28316508,0.234300028
-0.923171639,-0.270494074,-0.273106396,-0.051514626,0.023911834,-0.001703918,-0.203834593,0.249105692,-0.068298526,0.273906187,-1.28316508,0.234300028
-0.923171639,-0.270494074,-0.273106396,-0.051514626,0.023911834,-0.001703918,-0.203834593,0.249105692,-0.068298526,0.273906187,-1.28316508,0.234300028
-0.923171639,-0.270494074,-0.273106396,-0.051514626,0.023911834,-0.001703918,-0.203834593,0.249105692,-0.068298526,0.273906187,-1.28316508,0.234300028
-0.923171639,-0.270494074,-0.273106396,-0.051514626,0.023911834,-0.001703918,-0.203834593,0.249105692,-0.068298526,0.273906187,-1.28316508,0.234300028
-0.923171639,-0.270494074,-0.273106396,-0.051514626,0.023911834,-0.001703918,-0.203834593,0.249105692,-0.068298526,0.273906187,-1.28316508,0.234300028
-0.923171639,-0.270494074,-0.273106396,-0.051514626,0.023911834,-0.001703918,-0.203834593,0.249105692,-0.068298526,0.273906187,-1.28316508,0.234300028
-0.923171639,-0.270494074,-0.273106396,-0.051514626,0.023911834,-0.001703918,-0.203834593,0.249105692,-0.068298526,0.273906187,-1.28316508,0.234300028
-0.923171639,-0.270494074,-0.273106396,-0.051514626,0.023911834,-0.001703918,-0.203834593,0.249105692,-0.068298526,0.273906187,-1.28316508,0.234300028
-0.923171639,-0.270494074,-0.273106396,-0.051514626,0.023911834,-0.001703918,-0.203834593,0.249105692,-0.068298526,0.273906187,-1.28316508,0.234300028
-0.923171639,-0.270494074,-0.273106396,-0.051514626,0.023911834,-0.001703918,-0.203834593,0.249105692,-0.068298526,0.273906187,-1.28316508,0.234300028
-0.923171639,-0.270494074,-0.273106396,-0.051514626,0.023911834,-0.001703918,-0.203834593,0.249105692,-0.068298526,0.273906187,-1.28316508,0.234300028
-0.923171639,-0.270494074,-0.273106396,-0.051514626,0.023911834,-0.001703918,-0.203834593,0.249105692,-0.068298526,0.273906187,-1.28316508,0.234300028
-0.923171639,-0.270494074,-0.273106396,-0.051514626,0.023911834,-0.001703918,-0.203834593,0.249105692,-0.068298526,0.273906187,-1.28316508,0.234300028
-0.921045184,-0.274511397,-0.276259691,0.022789955,0.068456441,0.000945985,0.277536988,0.174039647,-0.052704331,0.278081546,-1.279393175,0.238807525
-0.921045184,-0.274511397,-0.276259691,0.022789955,0.068456441,0.000945985,0.277536988,0.174039647,-0.052704331,0.278081546,-1.279393175,0.238807525
-0.921045184,-0.274511397,-0.276259691,0.022789955,0.068456441,0.000945985,0.277536988,0.174039647,-0.052704331,0.278081546,-1.279393175,0.238807525
-0.921045184,-0.274511397,-0.276259691,0.022789955,0.068456441,0.000945985,0.277536988,0.174039647,-0.052704331,0.278081546,-1.279393175,0.238807525
-0.921045184,-0.274511397,-0.276259691,0.022789955,0.068456441,0.000945985,0.277536988,0.174039647,-0.052704331,0.278081546,-1.279393175,0.238807525
-0.921045184,-0.274511397,-0.276259691,0.022789955,0.068456441,0.000945985,0.277536988,0.174039647,-0.052704331,0.278081546,-1.279393175,0.238807525
-0.921045184,-0.274511397,-0.276259691,0.022789955,0.068456441,0.000945985,0.277536988,0.174039647,-0.052704331,0.278081546,-1.279393175,0.238807525
-0.921045184,-0.274511397,-0.276259691,0.022789955,0.068456441,0.000945985,0.277536988,0.174039647,-0.052704331,0.278081546,-1.279393175,0.238807525
-0.921045184,-0.274511397,-0.276259691,0.022789955,0.068456441,0.000945985,0.277536988,0.174039647,-0.052704331,0.278081546,-1.279393175,0.238807525
-0.921045184,-0.274511397,-0.276259691,0.022789955,0.068456441,0.000945985,0.277536988,0.174039647,-0.052704331,0.278081546,-1.279393175,0.238807525
-0.921045184,-0.274511397,-0.276259691,0.022789955,0.068456441,0.000945985,0.277536988,0.174039647,-0.052704331,0.278081546,-1.279393175,0.238807525
-0.921045184,-0.274511397,-0.276259691,0.022789955,0.068456441,0.000945985,0.277536988,0.174039647,-0.052704331,0.278081546,-1.279393175,0.238807525
-0.921045184,-0.274511397,-0.276259691,0.022789955,0.068456441,0.000945985,0.277536988,0.174039647,-0.052704331,0.278081546,-1.279393175,0.238807525
-0.921045184,-0.274511397,-0.276259691,0.022789955,0.068456441,0.000945985,0.277536988,0.174039647,-0.052704331,0.278081546,-1.279393175,0.238807525
-0.921045184,-0.274511397,-0.276259691,0.022789955,0.068456441,0.000945985,0.277536988,0.174039647,-0.052704331,0.278081546,-1.279393175,0.238807525
-0.921045184,-0.274511397,-0.276259691,0.022789955,0.068456441,0.000945985,0.277536988,0.174039647,-0.052704331,0.278081546,-1.279393175,0.238807525
-0.921045184,-0.274511397,-0.276259691,0.022789955,0.068456441,0.000945985,0.277536988,0.174039647,-0.052704331,0.278081546,-1.279393175,0.238807525
-0.921045184,-0.274511397,-0.276259691,0.022789955,0.068456441,0.000945985,0.277536988,0.174039647,-0.052704331,0.278081546,-1.279393175,0.238807525
-0.921045184,-0.274511397,-0.276259691,0.022789955,0.068456441,0.000945985,0.277536988,0.174039647,-0.052704331,0.278081546,-1.279393175,0.238807525
-0.921045184,-0.274511397,-0.276259691,0.022789955,0.068456441,0.000945985,0.277536988,0.174039647,-0.052704331,0.278081546,-1.279393175,0.238807525
-0.921045184,-0.274511397,-0.276259691,0.022789955,0.068456441,0.000945985,0.277536988,0.174039647,-0.052704331,0.278081546,-1.279393175,0.238807525
-0.921045184,-0.274511397,-0.276259691,0.022789955,0.068456441,0.000945985,0.277536988,0.174039647,-0.052704331,0.278081546,-1.279393175,0.238807525
-0.921045184,-0.274511397,-0.276259691,0.022789955,0.068456441,0.000945985,0.277536988,0.174039647,-0.052704331,0.278081546,-1.279393175,0.238807525
-0.921045184,-0.274511397,-0.276259691,0.022789955,0.068456441,0.000945985,0.277536988,0.174039647,-0.052704331,0.278081546,-1.279393175,0.238807525
-0.921045184,-0.274511397,-0.276259691,0.022789955,0.068456441,0.000945985,0.277536988,0.174039647,-0.052704331,0.278081546,-1.279393175,0.238807525
-0.921045184,-0.274511397,-0.276259691,0.022789955,0.068456441,0.000945985,0.277536988,0.174039647,-0.052704331,0.278081546,-1.279393175,0.238807525
-0.921045184,-0.274511397,-0.276259691,0.022789955,0.068456441,0.000945985,0.277536988,0.174039647,-0.052704331,0.278081546,-1.279393175,0.238807525
-0.921045184,-0.274511397,-0.276259691,0.022789955,0.068456441,0.000945985,0.277536988,0.174039647,-0.052704331,0.278081546,-1.279393175,0.238807525
-0.919235647,-0.273305535,-0.283390433,0.012908518,-0.028422028,0.009694159,-0.263631284,0.138052717,0.045782775,0.276827716,-1.271752197,0.239654579
-0.919235647,-0.273305535,-0.283390433,0.012908518,-0.028422028,0.009694159,-0.263631284,0.138052717,0.045782775,0.276827716,-1.271752197,0.239654579