gravityX,gravityY,gravityZ,accelX,accelY,accelZ,rotRateX,rotRatY,rotRateZ,attPitch,attRoll,attYaw
-0.942317486,-0.22679393,-0.246174753,0.013922453,0.050416499,0.001167893,0.537511766,0.025884252,-0.129709467,0.228784567,-1.315263433,0.177005435
-0.942317486,-0.22679393,-0.246174753,0.013922453,0.050416499,0.001167893,0.537511766,0.025884252,-0.129709467,0.228784567,-1.315263433,0.177005435
-0.942317486,-0.22679393,-0.246174753,0.013922453,0.050416499,0.001167893,0.537511766,0.025884252,-0.129709467,0.228784567,-1.315263433,0.177005435
-0.922008872,-0.305686116,-0.237603158,-0.04936552,-1.00E-04,0.005257428,0.043702774,0.0592793,0.151188612,0.310658955,-1.318582349,0.353338713
-0.922008872,-0.305686116,-0.237603158,-0.04936552,-1.00E-04,0.005257428,0.043702774,0.0592793,0.151188612,0.310658955,-1.318582349,0.353338713
-0.922008872,-0.305686116,-0.237603158,-0.04936552,-1.00E-04,0.005257428,0.043702774,0.0592793,0.151188612,0.310658955,-1.318582349,0.353338713
-0.922008872,-0.305686116,-0.237603158,-0.04936552,-1.00E-04,0.005257428,0.043702774,0.0592793,0.151188612,0.310658955,-1.318582349,0.353338713
-0.922008872,-0.305686116,-0.237603158,-0.04936552,-1.00E-04,0.005257428,0.043702774,0.0592793,0.151188612,0.310658955,-1.318582349,0.353338713
-0.922008872,-0.305686116,-0.237603158,-0.04936552,-1.00E-04,0.005257428,0.043702774,0.0592793,0.151188612,0.310658955,-1.318582349,0.353338713
-0.922008872,-0.305686116,-0.237603158,-0.04936552,-1.00E-04,0.005257428,0.043702774,0.0592793,0.151188612,0.310658955,-1.318582349,0.353338713
-0.922008872,-0.305686116,-0.237603158,-0.04936552,-1.00E-04,0.005257428,0.043702774,0.0592793,0.151188612,0.310658955,-1.318582349,0.353338713
-0.922008872,-0.305686116,-0.237603158,-0.04936552,-1.00E-04,0.005257428,0.043702774,0.0592793,0.151188612,0.310658955,-1.318582349,0.353338713
-0.922008872,-0.305686116,-0.237603158,-0.04936552,-1.00E-04,0.005257428,0.043702774,0.0592793,0.151188612,0.310658955,-1.318582349,0.353338713
-0.922008872,-0.305686116,-0.237603158,-0.04936552,-1.00E-04,0.005257428,0.043702774,0.0592793,0.151188612,0.310658955,-1.318582349,0.353338713
-0.922008872,-0.305686116,-0.237603158,-0.04936552,-1.00E-04,0.005257428,0.043702774,0.0592793,0.151188612,0.310658955,-1.318582349,0.353338713
-0.922008872,-0.305686116,-0.237603158,-0.04936552,-1.00E-04,0.005257428,0.043702774,0.0592793,0.151188612,0.310658955,-1.318582349,0.353338713
-0.922363639,-0.303985208,-0.238407537,0.013183475,0.032454878,0.007679701,0.085373938,0.060147163,0.06953641,0.308873049,-1.317857655,0.357630786
-0.922363639,-0.303985208,-0.238407537,0.013183475,0.032454878,0.007679701,0.085373938,0.060147163,0.06953641,0.308873049,-1.317857655,0.357630786
-0.922363639,-0.303985208,-0.238407537,0.013183475,0.032454878,0.007679701,0.085373938,0.060147163,0.06953641,0.308873049,-1.317857655,0.357630786
-0.922363639,-0.303985208,-0.238407537,0.013183475,0.032454878,0.007679701,0.085373938,0.060147163,0.06953641,0.308873049,-1.317857655,0.357630786
-0.922363639,-0.303985208,-0.238407537,0.013183475,0.032454878,0.007679701,0.085373938,0.060147163,0.06953641,0.308873049,-1.317857655,0.357630786
-0.922363639,-0.303985208,-0.238407537,0.013183475,0.032454878,0.007679701,0.085373938,0.060147163,0.06953641,0.308873049,-1.317857655,0.357630786
-0.922363639,-0.303985208,-0.238407537,0.013183475,0.032454878,0.007679701,0.085373938,0.060147163,0.06953641,0.308873049,-1.317857655,0.357630786
-0.922363639,-0.303985208,-0.238407537,0.013183475,0.032454878,0.007679701,0.085373938,0.060147163,0.06953641,0.308873049,-1.317857655,0.357630786
-0.922363639,-0.303985208,-0.238407537,0.013183475,0.032454878,0.007679701,0.085373938,0.060147163,0.06953641,0.308873049,-1.317857655,0.357630786
-0.921986699,-0.302698016,-0.241483867,0.013233483,0.003625482,0.010618985,-0.085924074,0.033067077,0.013245338,0.30752221,-1.314633621,0.356922592
-0.921986699,-0.302698016,-0.241483867,0.013233483,0.003625482,0.010618985,-0.085924074,0.033067077,0.013245338,0.30752221,-1.314633621,0.356922592
-0.921986699,-0.302698016,-0.241483867,0.013233483,0.003625482,0.010618985,-0.085924074,0.033067077,0.013245338,0.30752221,-1.314633621,0.356922592
-0.921986699,-0.302698016,-0.241483867,0.013233483,0.003625482,0.010618985,-0.085924074,0.033067077,0.013245338,0.30752221,-1.314633621,0.356922592
-0.921986699,-0.302698016,-0.241483867,0.013233483,0.003625482,0.010618985,-0.085924074,0.033067077,0.013245338,0.30752221,-1.314633621,0.356922592
-0.921986699,-0.302698016,-0.241483867,0.013233483,0.003625482,0.010618985,-0.085924074,0.033067077,0.013245338,0.30752221,-1.314633621,0.356922592
-0.921986699,-0.302698016,-0.241483867,0.013233483,0.003625482,0.010618985,-0.085924074,0.033067077,0.013245338,0.30752221,-1.314633621,0.356922592
-0.921986699,-0.302698016,-0.241483867,0.013233483,0.003625482,0.010618985,-0.085924074,0.033067077,0.013245338,0.30752221,-1.314633621,0.356922592
-0.921986699,-0.302698016,-0.241483867,0.013233483,0.003625482,0.010618985,-0.085924074,0.033067077,0.013245338,0.30752221,-1.314633621,0.356922592
-0.921986699,-0.302698016,-0.241483867,0.013233483,0.003625482,0.010618985,-0.085924074,0.033067077,0.013245338,0.30752221,-1.314633621,0.356922592
-0.921986699,-0.302698016,-0.241483867,0.013233483,0.003625482,0.010618985,-0.085924074,0.033067077,0.013245338,0.30752221,-1.314633621,0.356922592
-0.921986699,-0.302698016,-0.241483867,0.013233483,0.003625482,0.010618985,-0.085924074,0.033067077,0.013245338,0.30752221,-1.314633621,0.356922592
-0.921986699,-0.302698016,-0.241483867,0.013233483,0.003625482,0.010618985,-0.085924074,0.033067077,0.013245338,0.30752221,-1.314633621,0.356922592
-0.921986699,-0.302698016,-0.241483867,0.013233483,0.003625482,0.010618985,-0.085924074,0.033067077,0.013245338,0.30752221,-1.314633621,0.356922592
-0.921986699,-0.302698016,-0.241483867,0.013233483,0.003625482,0.010618985,-0.085924074,0.033067077,0.013245338,0.30752221,-1.314633621,0.356922592
-0.921986699,-0.302698016,-0.241483867,0.013233483,0.003625482,0.010618985,-0.085924074,0.033067077,0.013245338,0.30752221,-1.314633621,0.356922592
-0.921986699,-0.302698016,-0.241483867,0.013233483,0.003625482,0.010618985,-0.085924074,0.033067077,0.013245338,0.30752221,-1.314633621,0.356922592
-0.921986699,-0.302698016,-0.241483867,0.013233483,0.003625482,0.010618985,-0.085924074,0.033067077,0.013245338,0.30752221,-1.314633621,0.356922592
-0.921986699,-0.302698016,-0.241483867,0.013233483,0.003625482,0.010618985,-0.085924074,0.033067077,0.013245338,0.30752221,-1.314633621,0.356922592
-0.921986699,-0.302698016,-0.241483867,0.013233483,0.003625482,0.010618985,-0.085924074,0.033067077,0.013245338,0.30752221,-1.314633621,0.356922592
-0.921986699,-0.302698016,-0.241483867,0.013233483,0.003625482,0.010618985,-0.085924074,0.033067077,0.013245338,0.30752221,-1.314633621,0.356922592
-0.921986699,-0.302698016,-0.241483867,0.013233483,0.003625482,0.010618985,-0.085924074,0.033067077,0.013245338,0.30752221,-1.314633621,0.356922592
-0.921986699,-0.302698016,-0.241483867,0.013233483,0.003625482,0.010618985,-0.085924074,0.033067077,0.013245338,0.30752221,-1.314633621,0.356922592
-0.921986699,-0.302698016,-0.241483867,0.013233483,0.003625482,0.010618985,-0.085924074,0.033067077,0.013245338,0.30752221,-1.314633621,0.356922592
-0.921986699,-0.302698016,-0.241483867,0.013233483,0.003625482,0.010618985,-0.085924074,0.033067077,0.013245338,0.30752221,-1.314633621,0.356922592
-0.921986699,-0.302698016,-0.241483867,0.013233483,0.003625482,0.010618985,-0.085924074,0.033067077,0.013245338,0.30752221,-1.314633621,0.356922592
-0.921751678,-0.301528424,-0.243832454,-0.017152429,0.007811874,0.013485968,-0.036968581,0.057115093,0.01498092,0.30629528,-1.3121883,0.35412725
-0.921751678,-0.301528424,-0.243832454,-0.017152429,0.007811874,0.013485968,-0.036968581,0.057115093,0.01498092,0.30629528,-1.3121883,0.35412725
-0.921751678,-0.301528424,-0.243832454,-0.017152429,0.007811874,0.013485968,-0.036968581,0.057115093,0.01498092,0.30629528,-1.3121883,0.35412725
-0.921751678,-0.301528424,-0.243832454,-0.017152429,0.007811874,0.013485968,-0.036968581,0.057115093,0.01498092,0.30629528,-1.3121883,0.35412725
-0.921751678,-0.301528424,-0.243832454,-0.017152429,0.007811874,0.013485968,-0.036968581,0.057115093,0.01498092,0.30629528,-1.3121883,0.35412725
-0.921751678,-0.301528424,-0.243832454,-0.017152429,0.007811874,0.013485968,-0.036968581,0.057115093,0.01498092,0.30629528,-1.3121883,0.35412725
-0.921751678,-0.301528424,-0.243832454,-0.017152429,0.007811874,0.013485968,-0.036968581,0.057115093,0.01498092,0.30629528,-1.3121883,0.35412725
-0.921751678,-0.301528424,-0.243832454,-0.017152429,0.007811874,0.013485968,-0.036968581,0.057115093,0.01498092,0.30629528,-1.3121883,0.35412725
-0.921751678,-0.301528424,-0.243832454,-0.017152429,0.007811874,0.013485968,-0.036968581,0.057115093,0.01498092,0.30629528,-1.3121883,0.35412725
-0.921751678,-0.301528424,-0.243832454,-0.017152429,0.007811874,0.013485968,-0.036968581,0.057115093,0.01498092,0.30629528,-1.3121883,0.35412725
-0.921751678,-0.301528424,-0.243832454,-0.017152429,0.007811874,0.013485968,-0.036968581,0.057115093,0.01498092,0.30629528,-1.3121883,0.35412725
-0.921751678,-0.301528424,-0.243832454,-0.017152429,0.007811874,0.013485968,-0.036968581,0.057115093,0.01498092,0.30629528,-1.3121883,0.35412725
-0.921751678,-0.301528424,-0.243832454,-0.017152429,0.007811874,0.013485968,-0.036968581,0.057115093,0.01498092,0.30629528,-1.3121883,0.35412725
-0.921751678,-0.301528424,-0.243832454,-0.017152429,0.007811874,0.013485968,-0.036968581,0.057115093,0.01498092,0.30629528,-1.3121883,0.35412725
-0.921751678,-0.301528424,-0.243832454,-0.017152429,0.007811874,0.013485968,-0.036968581,0.057115093,0.01498092,0.30629528,-1.3121883,0.35412725
-0.921751678,-0.301528424,-0.243832454,-0.017152429,0.007811874,0.013485968,-0.036968581,0.057115093,0.01498092,0.30629528,-1.3121883,0.35412725
-0.921751678,-0.301528424,-0.243832454,-0.017152429,0.007811874,0.013485968,-0.036968581,0.057115093,0.01498092,0.30629528,-1.3121883,0.35412725
-0.921751678,-0.301528424,-0.243832454,-0.017152429,0.007811874,0.013485968,-0.036968581,0.057115093,0.01498092,0.30629528,-1.3121883,0.35412725
-0.921751678,-0.301528424,-0.243832454,-0.017152429,0.007811874,0.013485968,-0.036968581,0.057115093,0.01498092,0.30629528,-1.3121883,0.35412725
-0.921751678,-0.301528424,-0.243832454,-0.017152429,0.007811874,0.013485968,-0.036968581,0.057115093,0.01498092,0.30629528,-1.3121883,0.35412725
-0.921751678,-0.301528424,-0.243832454,-0.017152429,0.007811874,0.013485968,-0.036968581,0.057115093,0.01498092,0.30629528,-1.3121883,0.35412725
-0.921180546,-0.30110386,-0.24650085,-0.004662037,0.039415509,-0.001164377,0.093203403,0.131705999,0.032286406,0.305850027,-1.309329916,0.354989009
-0.921180546,-0.30110386,-0.24650085,-0.004662037,0.039415509,-0.001164377,0.093203403,0.131705999,0.032286406,0.305850027,-1.309329916,0.354989009
-0.921180546,-0.30110386,-0.24650085,-0.004662037,0.039415509,-0.001164377,0.093203403,0.131705999,0.032286406,0.305850027,-1.309329916,0.354989009
-0.921180546,-0.30110386,-0.24650085,-0.004662037,0.039415509,-0.001164377,0.093203403,0.131705999,0.032286406,0.305850027,-1.309329916,0.354989009
-0.921180546,-0.30110386,-0.24650085,-0.004662037,0.039415509,-0.001164377,0.093203403,0.131705999,0.032286406,0.305850027,-1.309329916,0.354989009
-0.921180546,-0.30110386,-0.24650085,-0.004662037,0.039415509,-0.001164377,0.093203403,0.131705999,0.032286406,0.305850027,-1.309329916,0.354989009
-0.921180546,-0.30110386,-0.24650085,-0.004662037,0.039415509,-0.001164377,0.093203403,0.131705999,0.032286406,0.305850027,-1.309329916,0.354989009
-0.921180546,-0.30110386,-0.24650085,-0.004662037,0.039415509,-0.001164377,0.093203403,0.131705999,0.032286406,0.305850027,-1.309329916,0.354989009
-0.921180546,-0.30110386,-0.24650085,-0.004662037,0.039415509,-0.001164377,0.093203403,0.131705999,0.032286406,0.305850027,-1.309329916,0.354989009
-0.921180546,-0.30110386,-0.24650085,-0.004662037,0.039415509,-0.001164377,0.093203403,0.131705999,0.032286406,0.305850027,-1.309329916,0.354989009
-0.921180546,-0.30110386,-0.24650085,-0.004662037,0.039415509,-0.001164377,0.093203403,0.131705999,0.032286406,0.305850027,-1.309329916,0.354989009
-0.921180546,-0.30110386,-0.24650085,-0.004662037,0.039415509,-0.001164377,0.093203403,0.131705999,0.032286406,0.305850027,-1.309329916,0.354989009
-0.921180546,-0.30110386,-0.24650085,-0.004662037,0.039415509,-0.001164377,0.093203403,0.131705999,0.032286406,0.305850027,-1.309329916,0.354989009
-0.921180546,-0.30110386,-0.24650085,-0.004662037,0.039415509,-0.001164377,0.093203403,0.131705999,0.032286406,0.305850027,-1.309329916,0.354989009
-0.921180546,-0.30110386,-0.24650085,-0.004662037,0.039415509,-0.001164377,0.093203403,0.131705999,0.032286406,0.305850027,-1.309329916,0.354989009
-0.921180546,-0.30110386,-0.24650085,-0.004662037,0.039415509,-0.001164377,0.093203403,0.131705999,0.032286406,0.305850027,-1.309329916,0.354989009
-0.921180546,-0.30110386,-0.24650085,-0.004662037,0.039415509,-0.001164377,0.093203403,0.131705999,0.032286406,0.305850027,-1.309329916,0.354989009
-0.921180546,-0.30110386,-0.24650085,-0.004662037,0.039415509,-0.001164377,0.093203403,0.131705999,0.032286406,0.305850027,-1.309329916,0.354989009
-0.925127268,-0.300437123,-0.232114196,0.014619946,0.016532034,-0.041353822,0.232086778,0.142215773,0.101902984,0.305150928,-1.324971031,0.369387734
-0.925127268,-0.300437123,-0.232114196,0.014619946,0.016532034,-0.041353822,0.232086778,0.142215773,0.101902984,0.305150928,-1.324971031,0.369387734
-0.925127268,-0.300437123,-0.232114196,0.014619946,0.016532034,-0.041353822,0.232086778,0.142215773,0.101902984,0.305150928,-1.324971031,0.369387734
-0.925127268,-0.300437123,-0.232114196,0.014619946,0.016532034,-0.041353822,0.232086778,0.142215773,0.101902984,0.305150928,-1.324971031,0.369387734
-0.925127268,-0.300437123,-0.232114196,0.014619946,0.016532034,-0.041353822,0.232086778,0.142215773,0.101902984,0.305150928,-1.324971031,0.369387734
-0.925127268,-0.300437123,-0.232114196,0.014619946,0.016532034,-0.041353822,0.232086778,0.142215773,0.101902984,0.305150928,-1.324971031,0.369387734
-0.925127268,-0.300437123,-0.232114196,0.014619946,0.016532034,-0.041353822,0.232086778,0.142215773,0.101902984,0.305150928,-1.324971031,0.369387734
-0.925127268,-0.300437123,-0.232114196,0.014619946,0.016532034,-0.041353822,0.232086778,0.142215773,0.101902984,0.305150928,-1.324971031,0.369387734
-0.925127268,-0.300437123,-0.232114196,0.014619946,0.016532034,-0.041353822,0.232086778,0.142215773,0.101902984,0.305150928,-1.324971031,0.369387734
-0.925127268,-0.300437123,-0.232114196,0.014619946,0.016532034,-0.041353822,0.232086778,0.142215773,0.101902984,0.305150928,-1.324971031,0.369387734
-0.925127268,-0.300437123,-0.232114196,0.014619946,0.016532034,-0.041353822,0.232086778,0.142215773,0.101902984,0.305150928,-1.324971031,0.369387734
-0.925127268,-0.300437123,-0.232114196,0.014619946,0.016532034,-0.041353822,0.232086778,0.142215773,0.101902984,0.305150928,-1.324971031,0.369387734
-0.925127268,-0.300437123,-0.232114196,0.014619946,0.016532034,-0.041353822,0.232086778,0.142215773,0.101902984,0.305150928,-1.324971031,0.369387734
-0.925127268,-0.300437123,-0.232114196,0.014619946,0.016532034,-0.041353822,0.232086778,0.142215773,0.101902984,0.305150928,-1.324971031,0.369387734
-0.925127268,-0.300437123,-0.232114196,0.014619946,0.016532034,-0.041353822,0.232086778,0.142215773,0.101902984,0.305150928,-1.324971031,0.369387734
-0.925127268,-0.300437123,-0.232114196,0.014619946,0.016532034,-0.041353822,0.232086778,0.142215773,0.101902984,0.305150928,-1.324971031,0.369387734
-0.925127268,-0.300437123,-0.232114196,0.014619946,0.016532034,-0.041353822,0.232086778,0.142215773,0.101902984,0.305150928,-1.324971031,0.369387734
-0.925127268,-0.300437123,-0.232114196,0.014619946,0.016532034,-0.041353822,0.232086778,0.142215773,0.101902984,0.305150928,-1.324971031,0.369387734
-0.930877149,-0.260361046,-0.256280839,-0.018937528,0.004379362,-0.016393125,-0.029838966,-0.009097152,0.102754451,0.263396111,-1.302140887,0.393345214
-0.930877149,-0.260361046,-0.256280839,-0.018937528,0.004379362,-0.016393125,-0.029838966,-0.009097152,0.102754451,0.263396111,-1.302140887,0.393345214
-0.930877149,-0.260361046,-0.256280839,-0.018937528,0.004379362,-0.016393125,-0.029838966,-0.009097152,0.102754451,0.263396111,-1.302140887,0.393345214
-0.931253016,-0.258670539,-0.256626576,-0.006186485,0.019916058,0.008885264,0.109458551,0.050260857,0.072628826,0.261645635,-1.301899082,0.396370986
-0.931253016,-0.258670539,-0.256626576,-0.006186485,0.019916058,0.008885264,0.109458551,0.050260857,0.072628826,0.261645635,-1.301899082,0.396370986
-0.931253016,-0.258670539,-0.256626576,-0.006186485,0.019916058,0.008885264,0.109458551,0.050260857,0.072628826,0.261645635,-1.301899082,0.396370986
-0.931253016,-0.258670539,-0.256626576,-0.006186485,0.019916058,0.008885264,0.109458551,0.050260857,0.072628826,0.261645635,-1.301899082,0.396370986
-0.931253016,-0.258670539,-0.256626576,-0.006186485,0.019916058,0.008885264,0.109458551,0.050260857,0.072628826,0.261645635,-1.301899082,0.396370986
-0.931253016,-0.258670539,-0.256626576,-0.006186485,0.019916058,0.008885264,0.109458551,0.050260857,0.072628826,0.261645635,-1.301899082,0.396370986
-0.931179583,-0.257151186,-0.258414,0.0038867,0.005518198,0.001594126,0.1094983,0.05747094,0.047925342,0.260073102,-1.300095735,0.401669456
-0.931179583,-0.257151186,-0.258414,0.0038867,0.005518198,0.001594126,0.1094983,0.05747094,0.047925342,0.260073102,-1.300095735,0.401669456
-0.931179583,-0.257151186,-0.258414,0.0038867,0.005518198,0.001594126,0.1094983,0.05747094,0.047925342,0.260073102,-1.300095735,0.401669456
-0.931179583,-0.257151186,-0.258414,0.0038867,0.005518198,0.001594126,0.1094983,0.05747094,0.047925342,0.260073102,-1.300095735,0.401669456
-0.931179583,-0.257151186,-0.258414,0.0038867,0.005518198,0.001594126,0.1094983,0.05747094,0.047925342,0.260073102,-1.300095735,0.401669456
-0.931179583,-0.257151186,-0.258414,0.0038867,0.005518198,0.001594126,0.1094983,0.05747094,0.047925342,0.260073102,-1.300095735,0.401669456
-0.931179583,-0.257151186,-0.258414,0.0038867,0.005518198,0.001594126,0.1094983,0.05747094,0.047925342,0.260073102,-1.300095735,0.401669456
-0.931179583,-0.257151186,-0.258414,0.0038867,0.005518198,0.001594126,0.1094983,0.05747094,0.047925342,0.260073102,-1.300095735,0.401669456
-0.931179583,-0.257151186,-0.258414,0.0038867,0.005518198,0.001594126,0.1094983,0.05747094,0.047925342,0.260073102,-1.300095735,0.401669456
-0.931179583,-0.257151186,-0.258414,0.0038867,0.005518198,0.001594126,0.1094983,0.05747094,0.047925342,0.260073102,-1.300095735,0.401669456
-0.931179583,-0.257151186,-0.258414,0.0038867,0.005518198,0.001594126,0.1094983,0.05747094,0.047925342,0.260073102,-1.300095735,0.401669456
-0.931179583,-0.257151186,-0.258414,0.0038867,0.005518198,0.001594126,0.1094983,0.05747094,0.047925342,0.260073102,-1.300095735,0.401669456
-0.931646347,-0.254324049,-0.259526819,-0.008433223,-0.004175365,0.001043618,-0.094157219,0.039228484,0.057757732,0.257148713,-1.299116053,0.403674827
-0.931646347,-0.254324049,-0.259526819,-0.008433223,-0.004175365,0.001043618,-0.094157219,0.039228484,0.057757732,0.257148713,-1.299116053,0.403674827
-0.931646347,-0.254324049,-0.259526819,-0.008433223,-0.004175365,0.001043618,-0.094157219,0.039228484,0.057757732,0.257148713,-1.299116053,0.403674827
-0.931646347,-0.254324049,-0.259526819,-0.008433223,-0.004175365,0.001043618,-0.094157219,0.039228484,0.057757732,0.257148713,-1.299116053,0.403674827
-0.931646347,-0.254324049,-0.259526819,-0.008433223,-0.004175365,0.001043618,-0.094157219,0.039228484,0.057757732,0.257148713,-1.299116053,0.403674827
-0.931646347,-0.254324049,-0.259526819,-0.008433223,-0.004175365,0.001043618,-0.094157219,0.039228484,0.057757732,0.257148713,-1.299116053,0.403674827
-0.931646347,-0.254324049,-0.259526819,-0.008433223,-0.004175365,0.001043618,-0.094157219,0.039228484,0.057757732,0.257148713,-1.299116053,0.403674827
-0.931646347,-0.254324049,-0.259526819,-0.008433223,-0.004175365,0.001043618,-0.094157219,0.039228484,0.057757732,0.257148713,-1.299116053,0.403674827
-0.931646347,-0.254324049,-0.259526819,-0.008433223,-0.004175365,0.001043618,-0.094157219,0.039228484,0.057757732,0.257148713,-1.299116053,0.403674827
-0.932060838,-0.250338644,-0.261902928,-0.009621143,0.009783566,0.016237199,-0.197803572,0.013943039,0.046163179,0.253030028,-1.296866682,0.397398057
-0.932060838,-0.250338644,-0.261902928,-0.009621143,0.009783566,0.016237199,-0.197803572,0.013943039,0.046163179,0.253030028,-1.296866682,0.397398057
-0.932060838,-0.250338644,-0.261902928,-0.009621143,0.009783566,0.016237199,-0.197803572,0.013943039,0.046163179,0.253030028,-1.296866682,0.397398057
-0.932455242,-0.247439548,-0.263250649,-0.018305719,0.024599925,0.013724446,-0.05340448,0.030120872,0.043166753,0.250036738,-1.295637701,0.392725521
-0.932455242,-0.247439548,-0.263250649,-0.018305719,0.024599925,0.013724446,-0.05340448,0.030120872,0.043166753,0.250036738,-1.295637701,0.392725521
-0.932455242,-0.247439548,-0.263250649,-0.018305719,0.024599925,0.013724446,-0.05340448,0.030120872,0.043166753,0.250036738,-1.295637701,0.392725521
-0.932455242,-0.247439548,-0.263250649,-0.018305719,0.024599925,0.013724446,-0.05340448,0.030120872,0.043166753,0.250036738,-1.295637701,0.392725521
-0.932455242,-0.247439548,-0.263250649,-0.018305719,0.024599925,0.013724446,-0.05340448,0.030120872,0.043166753,0.250036738,-1.295637701,0.392725521
-0.932455242,-0.247439548,-0.263250649,-0.018305719,0.024599925,0.013724446,-0.05340448,0.030120872,0.043166753,0.250036738,-1.295637701,0.392725521
-0.932455242,-0.247439548,-0.263250649,-0.018305719,0.024599925,0.013724446,-0.05340448,0.030120872,0.043166753,0.250036738,-1.295637701,0.392725521
-0.932455242,-0.247439548,-0.263250649,-0.018305719,0.024599925,0.013724446,-0.05340448,0.030120872,0.043166753,0.250036738,-1.295637701,0.392725521
-0.932455242,-0.247439548,-0.263250649,-0.018305719,0.024599925,0.013724446,-0.05340448,0.030120872,0.043166753,0.250036738,-1.295637701,0.392725521
-0.932461858,-0.247312039,-0.263346761,-0.003772497,0.064084291,0.009013891,0.302669674,0.11393778,0.043135326,0.249905136,-1.295544086,0.39725799
-0.932461858,-0.247312039,-0.263346761,-0.003772497,0.064084291,0.009013891,0.302669674,0.11393778,0.043135326,0.249905136,-1.295544086,0.39725799
-0.93190676,-0.248669788,-0.264032066,0.002645612,0.037228495,0.021982551,0.597635388,0.213203549,0.106920965,0.251306664,-1.294707443,0.418459601
-0.93190676,-0.248669788,-0.264032066,0.002645612,0.037228495,0.021982551,0.597635388,0.213203549,0.106920965,0.251306664,-1.294707443,0.418459601
-0.93190676,-0.248669788,-0.264032066,0.002645612,0.037228495,0.021982551,0.597635388,0.213203549,0.106920965,0.251306664,-1.294707443,0.418459601
-0.93190676,-0.248669788,-0.264032066,0.002645612,0.037228495,0.021982551,0.597635388,0.213203549,0.106920965,0.251306664,-1.294707443,0.418459601
-0.93190676,-0.248669788,-0.264032066,0.002645612,0.037228495,0.021982551,0.597635388,0.213203549,0.106920965,0.251306664,-1.294707443,0.418459601
-0.93190676,-0.248669788,-0.264032066,0.002645612,0.037228495,0.021982551,0.597635388,0.213203549,0.106920965,0.251306664,-1.294707443,0.418459601
-0.93190676,-0.248669788,-0.264032066,0.002645612,0.037228495,0.021982551,0.597635388,0.213203549,0.106920965,0.251306664,-1.294707443,0.418459601
-0.93192333,-0.247097462,-0.265446126,0.005652666,-0.015460864,0.009099245,0.338830233,0.140246913,0.093862787,0.249683686,-1.293308049,0.438999357
-0.93192333,-0.247097462,-0.265446126,0.005652666,-0.015460864,0.009099245,0.338830233,0.140246913,0.093862787,0.249683686,-1.293308049,0.438999357
-0.93192333,-0.247097462,-0.265446126,0.005652666,-0.015460864,0.009099245,0.338830233,0.140246913,0.093862787,0.249683686,-1.293308049,0.438999357
-0.93192333,-0.247097462,-0.265446126,0.005652666,-0.015460864,0.009099245,0.338830233,0.140246913,0.093862787,0.249683686,-1.293308049,0.438999357
-0.93192333,-0.247097462,-0.265446126,0.005652666,-0.015460864,0.009099245,0.338830233,0.140246913,0.093862787,0.249683686,-1.293308049,0.438999357
-0.93192333,-0.247097462,-0.265446126,0.005652666,-0.015460864,0.009099245,0.338830233,0.140246913,0.093862787,0.249683686,-1.293308049,0.438999357
-0.93192333,-0.247097462,-0.265446126,0.005652666,-0.015460864,0.009099245,0.338830233,0.140246913,0.093862787,0.249683686,-1.293308049,0.438999357
-0.93192333,-0.247097462,-0.265446126,0.005652666,-0.015460864,0.009099245,0.338830233,0.140246913,0.093862787,0.249683686,-1.293308049,0.438999357
-0.93192333,-0.247097462,-0.265446126,0.005652666,-0.015460864,0.009099245,0.338830233,0.140246913,0.093862787,0.249683686,-1.293308049,0.438999357
-0.93192333,-0.247097462,-0.265446126,0.005652666,-0.015460864,0.009099245,0.338830233,0.140246913,0.093862787,0.249683686,-1.293308049,0.438999357
-0.93192333,-0.247097462,-0.265446126,0.005652666,-0.015460864,0.009099245,0.338830233,0.140246913,0.093862787,0.249683686,-1.293308049,0.438999357
-0.93192333,-0.247097462,-0.265446126,0.005652666,-0.015460864,0.009099245,0.338830233,0.140246913,0.093862787,0.249683686,-1.293308049,0.438999357
-0.93192333,-0.247097462,-0.265446126,0.005652666,-0.015460864,0.009099245,0.338830233,0.140246913,0.093862787,0.249683686,-1.293308049,0.438999357
-0.932690918,-0.244209185,-0.265423387,0.00233078,-0.012245625,0.016583979,0.153849319,0.081791691,0.068201318,0.246704103,-1.293547437,0.449158339
-0.932690918,-0.244209185,-0.265423387,0.00233078,-0.012245625,0.016583979,0.153849319,0.081791691,0.068201318,0.246704103,-1.293547437,0.449158339
-0.932690918,-0.244209185,-0.265423387,0.00233078,-0.012245625,0.016583979,0.153849319,0.081791691,0.068201318,0.246704103,-1.293547437,0.449158339
-0.932690918,-0.244209185,-0.265423387,0.00233078,-0.012245625,0.016583979,0.153849319,0.081791691,0.068201318,0.246704103,-1.293547437,0.449158339
-0.932690918,-0.244209185,-0.265423387,0.00233078,-0.012245625,0.016583979,0.153849319,0.081791691,0.068201318,0.246704103,-1.293547437,0.449158339
-0.932690918,-0.244209185,-0.265423387,0.00233078,-0.012245625,0.016583979,0.153849319,0.081791691,0.068201318,0.246704103,-1.293547437,0.449158339
-0.932690918,-0.244209185,-0.265423387,0.00233078,-0.012245625,0.016583979,0.153849319,0.081791691,0.068201318,0.246704103,-1.293547437,0.449158339
-0.932690918,-0.244209185,-0.265423387,0.00233078,-0.012245625,0.016583979,0.153849319,0.081791691,0.068201318,0.246704103,-1.293547437,0.449158339
-0.932690918,-0.244209185,-0.265423387,0.00233078,-0.012245625,0.016583979,0.153849319,0.081791691,0.068201318,0.246704103,-1.293547437,0.449158339
-0.932690918,-0.244209185,-0.265423387,0.00233078,-0.012245625,0.016583979,0.153849319,0.081791691,0.068201318,0.246704103,-1.293547437,0.449158339
-0.932525933,-0.243799821,-0.266377389,0.007658541,-0.016637653,0.018041849,0.144309044,0.071995288,0.0551554,0.246281983,-1.292554754,0.455698531
-0.932525933,-0.243799821,-0.266377389,0.007658541,-0.016637653,0.018041849,0.144309044,0.071995288,0.0551554,0.246281983,-1.292554754,0.455698531
-0.932525933,-0.243799821,-0.266377389,0.007658541,-0.016637653,0.018041849,0.144309044,0.071995288,0.0551554,0.246281983,-1.292554754,0.455698531
-0.932525933,-0.243799821,-0.266377389,0.007658541,-0.016637653,0.018041849,0.144309044,0.071995288,0.0551554,0.246281983,-1.292554754,0.455698531
-0.932525933,-0.243799821,-0.266377389,0.007658541,-0.016637653,0.018041849,0.144309044,0.071995288,0.0551554,0.246281983,-1.292554754,0.455698531
-0.932525933,-0.243799821,-0.266377389,0.007658541,-0.016637653,0.018041849,0.144309044,0.071995288,0.0551554,0.246281983,-1.292554754,0.455698531
-0.932525933,-0.243799821,-0.266377389,0.007658541,-0.016637653,0.018041849,0.144309044,0.071995288,0.0551554,0.246281983,-1.292554754,0.455698531
-0.932525933,-0.243799821,-0.266377389,0.007658541,-0.016637653,0.018041849,0.144309044,0.071995288,0.0551554,0.246281983,-1.292554754,0.455698531
-0.932525933,-0.243799821,-0.266377389,0.007658541,-0.016637653,0.018041849,0.144309044,0.071995288,0.0551554,0.246281983,-1.292554754,0.455698531
-0.932219565,-0.244247839,-0.267038673,0.010449111,-0.020248622,0.015819669,0.093899786,0.051662698,0.031392757,0.246743956,-1.291812282,0.460569449
-0.932219565,-0.244247839,-0.267038673,0.010449111,-0.020248622,0.015819669,0.093899786,0.051662698,0.031392757,0.246743956,-1.291812282,0.460569449
-0.932219565,-0.244247839,-0.267038673,0.010449111,-0.020248622,0.015819669,0.093899786,0.051662698,0.031392757,0.246743956,-1.291812282,0.460569449
-0.932219565,-0.244247839,-0.267038673,0.010449111,-0.020248622,0.015819669,0.093899786,0.051662698,0.031392757,0.246743956,-1.291812282,0.460569449
-0.932219565,-0.244247839,-0.267038673,0.010449111,-0.020248622,0.015819669,0.093899786,0.051662698,0.031392757,0.246743956,-1.291812282,0.460569449
-0.932219565,-0.244247839,-0.267038673,0.010449111,-0.020248622,0.015819669,0.093899786,0.051662698,0.031392757,0.246743956,-1.291812282,0.460569449
-0.932219565,-0.244247839,-0.267038673,0.010449111,-0.020248622,0.015819669,0.093899786,0.051662698,0.031392757,0.246743956,-1.291812282,0.460569449
-0.932219565,-0.244247839,-0.267038673,0.010449111,-0.020248622,0.015819669,0.093899786,0.051662698,0.031392757,0.246743956,-1.291812282,0.460569449
-0.932219565,-0.244247839,-0.267038673,0.010449111,-0.020248622,0.015819669,0.093899786,0.051662698,0.031392757,0.246743956,-1.291812282,0.460569449
-0.93229264,-0.245035619,-0.266060114,0.027718306,-0.007025093,0.024225712,0.135975718,-0.003343986,0.032851849,0.247556424,-1.292803344,0.465480239
-0.93229264,-0.245035619,-0.266060114,0.027718306,-0.007025093,0.024225712,0.135975718,-0.003343986,0.032851849,0.247556424,-1.292803344,0.465480239
-0.93229264,-0.245035619,-0.266060114,0.027718306,-0.007025093,0.024225712,0.135975718,-0.003343986,0.032851849,0.247556424,-1.292803344,0.465480239
-0.93229264,-0.245035619,-0.266060114,0.027718306,-0.007025093,0.024225712,0.135975718,-0.003343986,0.032851849,0.247556424,-1.292803344,0.465480239
-0.93229264,-0.245035619,-0.266060114,0.027718306,-0.007025093,0.024225712,0.135975718,-0.003343986,0.032851849,0.247556424,-1.292803344,0.465480239
-0.93229264,-0.245035619,-0.266060114,0.027718306,-0.007025093,0.024225712,0.135975718,-0.003343986,0.032851849,0.247556424,-1.292803344,0.465480239
-0.93229264,-0.245035619,-0.266060114,0.027718306,-0.007025093,0.024225712,0.135975718,-0.003343986,0.032851849,0.247556424,-1.292803344,0.465480239
-0.93229264,-0.245035619,-0.266060114,0.027718306,-0.007025093,0.024225712,0.135975718,-0.003343986,0.032851849,0.247556424,-1.292803344,0.465480239
-0.93229264,-0.245035619,-0.266060114,0.027718306,-0.007025093,0.024225712,0.135975718,-0.003343986,0.032851849,0.247556424,-1.292803344,0.465480239
-0.93340224,-0.245551541,-0.261657238,0.017505229,-0.004464626,0.00537324,0.180072442,-0.035044365,0.052338626,0.248088616,-1.297485019,0.476224748
-0.93340224,-0.245551541,-0.261657238,0.017505229,-0.004464626,0.00537324,0.180072442,-0.035044365,0.052338626,0.248088616,-1.297485019,0.476224748
-0.93340224,-0.245551541,-0.261657238,0.017505229,-0.004464626,0.00537324,0.180072442,-0.035044365,0.052338626,0.248088616,-1.297485019,0.476224748
-0.935649157,-0.244922727,-0.254113287,0.0030123,0.004214138,-0.017352402,-0.007505603,-0.117479123,0.050758198,0.247439996,-1.305602774,0.481966589
-0.935649157,-0.244922727,-0.254113287,0.0030123,0.004214138,-0.017352402,-0.007505603,-0.117479123,0.050758198,0.247439996,-1.305602774,0.481966589
-0.935649157,-0.244922727,-0.254113287,0.0030123,0.004214138,-0.017352402,-0.007505603,-0.117479123,0.050758198,0.247439996,-1.305602774,0.481966589
-0.935649157,-0.244922727,-0.254113287,0.0030123,0.004214138,-0.017352402,-0.007505603,-0.117479123,0.050758198,0.247439996,-1.305602774,0.481966589
-0.935649157,-0.244922727,-0.254113287,0.0030123,0.004214138,-0.017352402,-0.007505603,-0.117479123,0.050758198,0.247439996,-1.305602774,0.481966589
-0.935649157,-0.244922727,-0.254113287,0.0030123,0.004214138,-0.017352402,-0.007505603,-0.117479123,0.050758198,0.247439996,-1.305602774,0.481966589
-0.935649157,-0.244922727,-0.254113287,0.0030123,0.004214138,-0.017352402,-0.007505603,-0.117479123,0.050758198,0.247439996,-1.305602774,0.481966589
-0.935649157,-0.244922727,-0.254113287,0.0030123,0.004214138,-0.017352402,-0.007505603,-0.117479123,0.050758198,0.247439996,-1.305602774,0.481966589
-0.935649157,-0.244922727,-0.254113287,0.0030123,0.004214138,-0.017352402,-0.007505603,-0.117479123,0.050758198,0.247439996,-1.305602774,0.481966589
-0.935649157,-0.244922727,-0.254113287,0.0030123,0.004214138,-0.017352402,-0.007505603,-0.117479123,0.050758198,0.247439996,-1.305602774,0.481966589
-0.935649157,-0.244922727,-0.254113287,0.0030123,0.004214138,-0.017352402,-0.007505603,-0.117479123,0.050758198,0.247439996,-1.305602774,0.481966589
-0.936958849,-0.243734434,-0.250402749,0.007342815,0.007130355,-0.019582391,0.029547608,-0.107367262,0.059975345,0.246214555,-1.309648916,0.483534256
-0.936958849,-0.243734434,-0.250402749,0.007342815,0.007130355,-0.019582391,0.029547608,-0.107367262,0.059975345,0.246214555,-1.309648916,0.483534256
-0.936958849,-0.243734434,-0.250402749,0.007342815,0.007130355,-0.019582391,0.029547608,-0.107367262,0.059975345,0.246214555,-1.309648916,0.483534256
-0.938491285,-0.240862817,-0.247425109,-0.005407214,6.26E-05,-0.021995306,-0.147174224,-0.111152425,0.084274024,0.243254746,-1.313020512,0.481879904
-0.942441583,-0.231075093,-0.241677403,-0.004905701,0.00661698,-0.014070809,-0.085373104,-0.121420324,0.101563588,0.233182534,-1.319768033,0.475125532
-0.942441583,-0.231075093,-0.241677403,-0.004905701,0.00661698,-0.014070809,-0.085373104,-0.121420324,0.101563588,0.233182534,-1.319768033,0.475125532
-0.944202125,-0.226416662,-0.239202365,-0.000506043,0.003804743,-0.009480536,-0.059654091,-0.099041492,0.107553035,0.228397227,-1.322678405,0.47262883
-0.944202125,-0.226416662,-0.239202365,-0.000506043,0.003804743,-0.009480536,-0.059654091,-0.099041492,0.107553035,0.228397227,-1.322678405,0.47262883
-0.944202125,-0.226416662,-0.239202365,-0.000506043,0.003804743,-0.009480536,-0.059654091,-0.099041492,0.107553035,0.228397227,-1.322678405,0.47262883
-0.945981801,-0.221999452,-0.236293167,0.001029432,-0.00354217,-0.01414454,-0.053919908,-0.114179991,0.096869238,0.22386461,-1.32601893,0.471748084
-0.945981801,-0.221999452,-0.236293167,0.001029432,-0.00354217,-0.01414454,-0.053919908,-0.114179991,0.096869238,0.22386461,-1.32601893,0.471748084
-0.945981801,-0.221999452,-0.236293167,0.001029432,-0.00354217,-0.01414454,-0.053919908,-0.114179991,0.096869238,0.22386461,-1.32601893,0.471748084
-0.945981801,-0.221999452,-0.236293167,0.001029432,-0.00354217,-0.01414454,-0.053919908,-0.114179991,0.096869238,0.22386461,-1.32601893,0.471748084
-0.945981801,-0.221999452,-0.236293167,0.001029432,-0.00354217,-0.01414454,-0.053919908,-0.114179991,0.096869238,0.22386461,-1.32601893,0.471748084
-0.945981801,-0.221999452,-0.236293167,0.001029432,-0.00354217,-0.01414454,-0.053919908,-0.114179991,0.096869238,0.22386461,-1.32601893,0.471748084
-0.947723508,-0.217939153,-0.233072385,0.001748443,-0.003284246,-0.011414051,-0.074216925,-0.129392505,0.081539817,0.219702369,-1.329653156,0.469606638
-0.947723508,-0.217939153,-0.233072385,0.001748443,-0.003284246,-0.011414051,-0.074216925,-0.129392505,0.081539817,0.219702369,-1.329653156,0.469606638
-0.947723508,-0.217939153,-0.233072385,0.001748443,-0.003284246,-0.011414051,-0.074216925,-0.129392505,0.081539817,0.219702369,-1.329653156,0.469606638
-0.947723508,-0.217939153,-0.233072385,0.001748443,-0.003284246,-0.011414051,-0.074216925,-0.129392505,0.081539817,0.219702369,-1.329653156,0.469606638
-0.947723508,-0.217939153,-0.233072385,0.001748443,-0.003284246,-0.011414051,-0.074216925,-0.129392505,0.081539817,0.219702369,-1.329653156,0.469606638
-0.94916755,-0.215386719,-0.229541928,0.002124071,-0.006218195,0.004342794,0.016698362,-0.127699167,0.049979597,0.21708783,-1.333517007,0.468741356
-0.94916755,-0.215386719,-0.229541928,0.002124071,-0.006218195,0.004342794,0.016698362,-0.127699167,0.049979597,0.21708783,-1.333517007,0.468741356
-0.94916755,-0.215386719,-0.229541928,0.002124071,-0.006218195,0.004342794,0.016698362,-0.127699167,0.049979597,0.21708783,-1.333517007,0.468741356
-0.95058912,-0.21485132,-0.224096119,-0.004862249,-0.005746633,0.004863501,0.092158459,-0.179543108,0.025850397,0.216539595,-1.339278987,0.471370811
-0.95058912,-0.21485132,-0.224096119,-0.004862249,-0.005746633,0.004863501,0.092158459,-0.179543108,0.025850397,0.216539595,-1.339278987,0.471370811
-0.95058912,-0.21485132,-0.224096119,-0.004862249,-0.005746633,0.004863501,0.092158459,-0.179543108,0.025850397,0.216539595,-1.339278987,0.471370811
-0.95058912,-0.21485132,-0.224096119,-0.004862249,-0.005746633,0.004863501,0.092158459,-0.179543108,0.025850397,0.216539595,-1.339278987,0.471370811
-0.95058912,-0.21485132,-0.224096119,-0.004862249,-0.005746633,0.004863501,0.092158459,-0.179543108,0.025850397,0.216539595,-1.339278987,0.471370811
-0.95058912,-0.21485132,-0.224096119,-0.004862249,-0.005746633,0.004863501,0.092158459,-0.179543108,0.025850397,0.216539595,-1.339278987,0.471370811
-0.95058912,-0.21485132,-0.224096119,-0.004862249,-0.005746633,0.004863501,0.092158459,-0.179543108,0.025850397,0.216539595,-1.339278987,0.471370811
-0.95058912,-0.21485132,-0.224096119,-0.004862249,-0.005746633,0.004863501,0.092158459,-0.179543108,0.025850397,0.216539595,-1.339278987,0.471370811
-0.95058912,-0.21485132,-0.224096119,-0.004862249,-0.005746633,0.004863501,0.092158459,-0.179543108,0.025850397,0.216539595,-1.339278987,0.471370811
-0.95235908,-0.214843854,-0.216458261,-0.005136847,-0.005082652,0.002917171,0.100085393,-0.208935395,0.047135342,0.216531946,-1.347306737,0.475416844
-0.95235908,-0.214843854,-0.216458261,-0.005136847,-0.005082652,0.002917171,0.100085393,-0.208935395,0.047135342,0.216531946,-1.347306737,0.475416844
-0.95235908,-0.214843854,-0.216458261,-0.005136847,-0.005082652,0.002917171,0.100085393,-0.208935395,0.047135342,0.216531946,-1.347306737,0.475416844
-0.95235908,-0.214843854,-0.216458261,-0.005136847,-0.005082652,0.002917171,0.100085393,-0.208935395,0.047135342,0.216531946,-1.347306737,0.475416844
-0.95235908,-0.214843854,-0.216458261,-0.005136847,-0.005082652,0.002917171,0.100085393,-0.208935395,0.047135342,0.216531946,-1.347306737,0.475416844
-0.95235908,-0.214843854,-0.216458261,-0.005136847,-0.005082652,0.002917171,0.100085393,-0.208935395,0.047135342,0.216531946,-1.347306737,0.475416844
-0.954956889,-0.212722898,-0.206896305,-0.008733988,-0.00775291,0.007011712,0.252625167,-0.226138562,0.172321588,0.21436079,-1.357438714,0.482379066
-0.954956889,-0.212722898,-0.206896305,-0.008733988,-0.00775291,0.007011712,0.252625167,-0.226138562,0.172321588,0.21436079,-1.357438714,0.482379066
-0.954956889,-0.212722898,-0.206896305,-0.008733988,-0.00775291,0.007011712,0.252625167,-0.226138562,0.172321588,0.21436079,-1.357438714,0.482379066
-0.957878768,-0.208788693,-0.197168753,0.048737943,-0.004164487,-0.027877331,0.343247503,-0.193991631,0.114387505,0.210336183,-1.367792756,0.496073585
-0.957878768,-0.208788693,-0.197168753,0.048737943,-0.004164487,-0.027877331,0.343247503,-0.193991631,0.114387505,0.210336183,-1.367792756,0.496073585
-0.957878768,-0.208788693,-0.197168753,0.048737943,-0.004164487,-0.027877331,0.343247503,-0.193991631,0.114387505,0.210336183,-1.367792756,0.496073585
-0.957878768,-0.208788693,-0.197168753,0.048737943,-0.004164487,-0.027877331,0.343247503,-0.193991631,0.114387505,0.210336183,-1.367792756,0.496073585
-0.957878768,-0.208788693,-0.197168753,0.048737943,-0.004164487,-0.027877331,0.343247503,-0.193991631,0.114387505,0.210336183,-1.367792756,0.496073585
-0.959318101,-0.209014118,-0.189793915,0.00316453,-0.070879489,-0.066395044,0.156926021,-0.089640684,0.008205678,0.210566705,-1.375476122,0.506889412
-0.959318101,-0.209014118,-0.189793915,0.00316453,-0.070879489,-0.066395044,0.156926021,-0.089640684,0.008205678,0.210566705,-1.375476122,0.506889412
-0.959318101,-0.209014118,-0.189793915,0.00316453,-0.070879489,-0.066395044,0.156926021,-0.089640684,0.008205678,0.210566705,-1.375476122,0.506889412
-0.959318101,-0.209014118,-0.189793915,0.00316453,-0.070879489,-0.066395044,0.156926021,-0.089640684,0.008205678,0.210566705,-1.375476122,0.506889412
-0.959318101,-0.209014118,-0.189793915,0.00316453,-0.070879489,-0.066395044,0.156926021,-0.089640684,0.008205678,0.210566705,-1.375476122,0.506889412
-0.959318101,-0.209014118,-0.189793915,0.00316453,-0.070879489,-0.066395044,0.156926021,-0.089640684,0.008205678,0.210566705,-1.375476122,0.506889412
-0.959318101,-0.209014118,-0.189793915,0.00316453,-0.070879489,-0.066395044,0.156926021,-0.089640684,0.008205678,0.210566705,-1.375476122,0.506889412
-0.959318101,-0.209014118,-0.189793915,0.00316453,-0.070879489,-0.066395044,0.156926021,-0.089640684,0.008205678,0.210566705,-1.375476122,0.506889412
-0.959318101,-0.209014118,-0.189793915,0.00316453,-0.070879489,-0.066395044,0.156926021,-0.089640684,0.008205678,0.210566705,-1.375476122,0.506889412
-0.959318101,-0.209014118,-0.189793915,0.00316453,-0.070879489,-0.066395044,0.156926021,-0.089640684,0.008205678,0.210566705,-1.375476122,0.506889412
-0.959318101,-0.209014118,-0.189793915,0.00316453,-0.070879489,-0.066395044,0.156926021,-0.089640684,0.008205678,0.210566705,-1.375476122,0.506889412
-0.959318101,-0.209014118,-0.189793915,0.00316453,-0.070879489,-0.066395044,0.156926021,-0.089640684,0.008205678,0.210566705,-1.375476122,0.506889412
-0.959318101,-0.209014118,-0.189793915,0.00316453,-0.070879489,-0.066395044,0.156926021,-0.089640684,0.008205678,0.210566705,-1.375476122,0.506889412
-0.959318101,-0.209014118,-0.189793915,0.00316453,-0.070879489,-0.066395044,0.156926021,-0.089640684,0.008205678,0.210566705,-1.375476122,0.506889412
-0.959318101,-0.209014118,-0.189793915,0.00316453,-0.070879489,-0.066395044,0.156926021,-0.089640684,0.008205678,0.210566705,-1.375476122,0.506889412
-0.959318101,-0.209014118,-0.189793915,0.00316453,-0.070879489,-0.066395044,0.156926021,-0.089640684,0.008205678,0.210566705,-1.375476122,0.506889412
-0.958425105,-0.21431379,-0.188389957,-0.019594073,-0.038144499,-0.059025347,0.382555306,0.052756436,-0.160933182,0.215989242,-1.376708718,0.516127741
-0.958425105,-0.21431379,-0.188389957,-0.019594073,-0.038144499,-0.059025347,0.382555306,0.052756436,-0.160933182,0.215989242,-1.376708718,0.516127741
-0.958425105,-0.21431379,-0.188389957,-0.019594073,-0.038144499,-0.059025347,0.382555306,0.052756436,-0.160933182,0.215989242,-1.376708718,0.516127741
-0.958425105,-0.21431379,-0.188389957,-0.019594073,-0.038144499,-0.059025347,0.382555306,0.052756436,-0.160933182,0.215989242,-1.376708718,0.516127741
-0.958425105,-0.21431379,-0.188389957,-0.019594073,-0.038144499,-0.059025347,0.382555306,0.052756436,-0.160933182,0.215989242,-1.376708718,0.516127741
-0.958425105,-0.21431379,-0.188389957,-0.019594073,-0.038144499,-0.059025347,0.382555306,0.052756436,-0.160933182,0.215989242,-1.376708718,0.516127741
-0.958425105,-0.21431379,-0.188389957,-0.019594073,-0.038144499,-0.059025347,0.382555306,0.052756436,-0.160933182,0.215989242,-1.376708718,0.516127741
-0.958425105,-0.21431379,-0.188389957,-0.019594073,-0.038144499,-0.059025347,0.382555306,0.052756436,-0.160933182,0.215989242,-1.376708718,0.516127741
-0.958425105,-0.21431379,-0.188389957,-0.019594073,-0.038144499,-0.059025347,0.382555306,0.052756436,-0.160933182,0.215989242,-1.376708718,0.516127741
-0.954267323,-0.226201534,-0.195465103,-0.035791099,-0.106304467,-0.07811898,-0.111707889,0.219060868,-0.351650178,0.228176364,-1.368758346,0.520137086
-0.954267323,-0.226201534,-0.195465103,-0.035791099,-0.106304467,-0.07811898,-0.111707889,0.219060868,-0.351650178,0.228176364,-1.368758346,0.520137086
-0.954267323,-0.226201534,-0.195465103,-0.035791099,-0.106304467,-0.07811898,-0.111707889,0.219060868,-0.351650178,0.228176364,-1.368758346,0.520137086
-0.954267323,-0.226201534,-0.195465103,-0.035791099,-0.106304467,-0.07811898,-0.111707889,0.219060868,-0.351650178,0.228176364,-1.368758346,0.520137086
-0.954267323,-0.226201534,-0.195465103,-0.035791099,-0.106304467,-0.07811898,-0.111707889,0.219060868,-0.351650178,0.228176364,-1.368758346,0.520137086
-0.954267323,-0.226201534,-0.195465103,-0.035791099,-0.106304467,-0.07811898,-0.111707889,0.219060868,-0.351650178,0.228176364,-1.368758346,0.520137086
-0.954267323,-0.226201534,-0.195465103,-0.035791099,-0.106304467,-0.07811898,-0.111707889,0.219060868,-0.351650178,0.228176364,-1.368758346,0.520137086
-0.954267323,-0.226201534,-0.195465103,-0.035791099,-0.106304467,-0.07811898,-0.111707889,0.219060868,-0.351650178,0.228176364,-1.368758346,0.520137086
-0.954267323,-0.226201534,-0.195465103,-0.035791099,-0.106304467,-0.07811898,-0.111707889,0.219060868,-0.351650178,0.228176364,-1.368758346,0.520137086
-0.928357542,-0.290542632,-0.231812894,0.00969553,0.042035878,0.029914021,0.27603972,0.230337605,-0.603604257,0.294793888,-1.326098001,0.504351362
-0.928357542,-0.290542632,-0.231812894,0.00969553,0.042035878,0.029914021,0.27603972,0.230337605,-0.603604257,0.294793888,-1.326098001,0.504351362
-0.928357542,-0.290542632,-0.231812894,0.00969553,0.042035878,0.029914021,0.27603972,0.230337605,-0.603604257,0.294793888,-1.326098001,0.504351362
-0.928357542,-0.290542632,-0.231812894,0.00969553,0.042035878,0.029914021,0.27603972,0.230337605,-0.603604257,0.294793888,-1.326098001,0.504351362
-0.928357542,-0.290542632,-0.231812894,0.00969553,0.042035878,0.029914021,0.27603972,0.230337605,-0.603604257,0.294793888,-1.326098001,0.504351362
-0.928357542,-0.290542632,-0.231812894,0.00969553,0.042035878,0.029914021,0.27603972,0.230337605,-0.603604257,0.294793888,-1.326098001,0.504351362
-0.920437932,-0.313410133,-0.233597979,0.001303375,0.043663085,0.045462132,0.373432875,0.116225287,-0.537728786,0.318781973,-1.322253767,0.513189968
-0.920437932,-0.313410133,-0.233597979,0.001303375,0.043663085,0.045462132,0.373432875,0.116225287,-0.537728786,0.318781973,-1.322253767,0.513189968
-0.920437932,-0.313410133,-0.233597979,0.001303375,0.043663085,0.045462132,0.373432875,0.116225287,-0.537728786,0.318781973,-1.322253767,0.513189968
-0.920437932,-0.313410133,-0.233597979,0.001303375,0.043663085,0.045462132,0.373432875,0.116225287,-0.537728786,0.318781973,-1.322253767,0.513189968
-0.920437932,-0.313410133,-0.233597979,0.001303375,0.043663085,0.045462132,0.373432875,0.116225287,-0.537728786,0.318781973,-1.322253767,0.513189968
-0.920437932,-0.313410133,-0.233597979,0.001303375,0.043663085,0.045462132,0.373432875,0.116225287,-0.537728786,0.318781973,-1.322253767,0.513189968
-0.920437932,-0.313410133,-0.233597979,0.001303375,0.043663085,0.045462132,0.373432875,0.116225287,-0.537728786,0.318781973,-1.322253767,0.513189968
-0.920437932,-0.313410133,-0.233597979,0.001303375,0.043663085,0.045462132,0.373432875,0.116225287,-0.537728786,0.318781973,-1.322253767,0.513189968
-0.920437932,-0.313410133,-0.233597979,0.001303375,0.043663085,0.045462132,0.373432875,0.116225287,-0.537728786,0.318781973,-1.322253767,0.513189968
-0.920437932,-0.313410133,-0.233597979,0.001303375,0.043663085,0.045462132,0.373432875,0.116225287,-0.537728786,0.318781973,-1.322253767,0.513189968
-0.920437932,-0.313410133,-0.233597979,0.001303375,0.043663085,0.045462132,0.373432875,0.116225287,-0.537728786,0.318781973,-1.322253767,0.513189968
-0.920437932,-0.313410133,-0.233597979,0.001303375,0.043663085,0.045462132,0.373432875,0.116225287,-0.537728786,0.318781973,-1.322253767,0.513189968
-0.914671898,-0.329829991,-0.233639494,0.000481009,0.016595244,0.058138132,-0.105981819,0.058016285,-0.398851186,0.336123478,-1.320708654,0.515213556
-0.914671898,-0.329829991,-0.233639494,0.000481009,0.016595244,0.058138132,-0.105981819,0.058016285,-0.398851186,0.336123478,-1.320708654,0.515213556
-0.914671898,-0.329829991,-0.233639494,0.000481009,0.016595244,0.058138132,-0.105981819,0.058016285,-0.398851186,0.336123478,-1.320708654,0.515213556
-0.914671898,-0.329829991,-0.233639494,0.000481009,0.016595244,0.058138132,-0.105981819,0.058016285,-0.398851186,0.336123478,-1.320708654,0.515213556
-0.914671898,-0.329829991,-0.233639494,0.000481009,0.016595244,0.058138132,-0.105981819,0.058016285,-0.398851186,0.336123478,-1.320708654,0.515213556
-0.914671898,-0.329829991,-0.233639494,0.000481009,0.016595244,0.058138132,-0.105981819,0.058016285,-0.398851186,0.336123478,-1.320708654,0.515213556
-0.914671898,-0.329829991,-0.233639494,0.000481009,0.016595244,0.058138132,-0.105981819,0.058016285,-0.398851186,0.336123478,-1.320708654,0.515213556
-0.914671898,-0.329829991,-0.233639494,0.000481009,0.016595244,0.058138132,-0.105981819,0.058016285,-0.398851186,0.336123478,-1.320708654,0.515213556
-0.914671898,-0.329829991,-0.233639494,0.000481009,0.016595244,0.058138132,-0.105981819,0.058016285,-0.398851186,0.336123478,-1.320708654,0.515213556
-0.911378384,-0.338176966,-0.23457554,0.009424984,0.046075553,0.061820865,-0.171913594,-0.047473677,-0.286661655,0.344979053,-1.31887883,0.504905494
-0.911378384,-0.338176966,-0.23457554,0.009424984,0.046075553,0.061820865,-0.171913594,-0.047473677,-0.286661655,0.344979053,-1.31887883,0.504905494
-0.911378384,-0.338176966,-0.23457554,0.009424984,0.046075553,0.061820865,-0.171913594,-0.047473677,-0.286661655,0.344979053,-1.31887883,0.504905494
-0.911378384,-0.338176966,-0.23457554,0.009424984,0.046075553,0.061820865,-0.171913594,-0.047473677,-0.286661655,0.344979053,-1.31887883,0.504905494
-0.911378384,-0.338176966,-0.23457554,0.009424984,0.046075553,0.061820865,-0.171913594,-0.047473677,-0.286661655,0.344979053,-1.31887883,0.504905494
-0.911378384,-0.338176966,-0.23457554,0.009424984,0.046075553,0.061820865,-0.171913594,-0.047473677,-0.286661655,0.344979053,-1.31887883,0.504905494
-0.911378384,-0.338176966,-0.23457554,0.009424984,0.046075553,0.061820865,-0.171913594,-0.047473677,-0.286661655,0.344979053,-1.31887883,0.504905494
-0.911378384,-0.338176966,-0.23457554,0.009424984,0.046075553,0.061820865,-0.171913594,-0.047473677,-0.286661655,0.344979053,-1.31887883,0.504905494
-0.911378384,-0.338176966,-0.23457554,0.009424984,0.046075553,0.061820865,-0.171913594,-0.047473677,-0.286661655,0.344979053,-1.31887883,0.504905494
-0.909518421,-0.345323712,-0.231360957,-0.019046485,0.034575939,0.059994996,-0.162147433,-0.082670406,-0.247720584,0.352583692,-1.321701986,0.497947306
-0.909518421,-0.345323712,-0.231360957,-0.019046485,0.034575939,0.059994996,-0.162147433,-0.082670406,-0.247720584,0.352583692,-1.321701986,0.497947306
-0.909518421,-0.345323712,-0.231360957,-0.019046485,0.034575939,0.059994996,-0.162147433,-0.082670406,-0.247720584,0.352583692,-1.321701986,0.497947306
-0.909518421,-0.345323712,-0.231360957,-0.019046485,0.034575939,0.059994996,-0.162147433,-0.082670406,-0.247720584,0.352583692,-1.321701986,0.497947306
-0.909518421,-0.345323712,-0.231360957,-0.019046485,0.034575939,0.059994996,-0.162147433,-0.082670406,-0.247720584,0.352583692,-1.321701986,0.497947306
-0.909518421,-0.345323712,-0.231360957,-0.019046485,0.034575939,0.059994996,-0.162147433,-0.082670406,-0.247720584,0.352583692,-1.321701986,0.497947306
-0.909518421,-0.345323712,-0.231360957,-0.019046485,0.034575939,0.059994996,-0.162147433,-0.082670406,-0.247720584,0.352583692,-1.321701986,0.497947306
-0.909518421,-0.345323712,-0.231360957,-0.019046485,0.034575939,0.059994996,-0.162147433,-0.082670406,-0.247720584,0.352583692,-1.321701986,0.497947306
-0.909518421,-0.345323712,-0.231360957,-0.019046485,0.034575939,0.059994996,-0.162147433,-0.082670406,-0.247720584,0.352583692,-1.321701986,0.497947306
-0.907324672,-0.349539846,-0.233631641,-0.023101926,-0.008418679,0.070352972,-0.793094039,0.006250317,-0.23030597,0.357079913,-1.318776014,0.478257405
-0.907324672,-0.349539846,-0.233631641,-0.023101926,-0.008418679,0.070352972,-0.793094039,0.006250317,-0.23030597,0.357079913,-1.318776014,0.478257405
-0.907324672,-0.349539846,-0.233631641,-0.023101926,-0.008418679,0.070352972,-0.793094039,0.006250317,-0.23030597,0.357079913,-1.318776014,0.478257405
-0.907324672,-0.349539846,-0.233631641,-0.023101926,-0.008418679,0.070352972,-0.793094039,0.006250317,-0.23030597,0.357079913,-1.318776014,0.478257405
-0.907324672,-0.349539846,-0.233631641,-0.023101926,-0.008418679,0.070352972,-0.793094039,0.006250317,-0.23030597,0.357079913,-1.318776014,0.478257405
-0.907324672,-0.349539846,-0.233631641,-0.023101926,-0.008418679,0.070352972,-0.793094039,0.006250317,-0.23030597,0.357079913,-1.318776014,0.478257405
-0.907324672,-0.349539846,-0.233631641,-0.023101926,-0.008418679,0.070352972,-0.793094039,0.006250317,-0.23030597,0.357079913,-1.318776014,0.478257405
-0.907324672,-0.349539846,-0.233631641,-0.023101926,-0.008418679,0.070352972,-0.793094039,0.006250317,-0.23030597,0.357079913,-1.318776014,0.478257405
-0.907324672,-0.349539846,-0.233631641,-0.023101926,-0.008418679,0.070352972,-0.793094039,0.006250317,-0.23030597,0.357079913,-1.318776014,0.478257405
-0.907324672,-0.349539846,-0.233631641,-0.023101926,-0.008418679,0.070352972,-0.793094039,0.006250317,-0.23030597,0.357079913,-1.318776014,0.478257405
-0.907324672,-0.349539846,-0.233631641,-0.023101926,-0.008418679,0.070352972,-0.793094039,0.006250317,-0.23030597,0.357079913,-1.318776014,0.478257405
-0.907324672,-0.349539846,-0.233631641,-0.023101926,-0.008418679,0.070352972,-0.793094039,0.006250317,-0.23030597,0.357079913,-1.318776014,0.478257405
-0.907324672,-0.349539846,-0.233631641,-0.023101926,-0.008418679,0.070352972,-0.793094039,0.006250317,-0.23030597,0.357079913,-1.318776014,0.478257405
-0.907324672,-0.349539846,-0.233631641,-0.023101926,-0.008418679,0.070352972,-0.793094039,0.006250317,-0.23030597,0.357079913,-1.318776014,0.478257405
-0.905733585,-0.345304281,-0.245787695,-0.020969927,0.016657859,0.042225778,-0.974182665,0.028745722,-0.174632147,0.352562975,-1.30580928,0.435975743
-0.905733585,-0.345304281,-0.245787695,-0.020969927,0.016657859,0.042225778,-0.974182665,0.028745722,-0.174632147,0.352562975,-1.30580928,0.435975743
-0.905733585,-0.345304281,-0.245787695,-0.020969927,0.016657859,0.042225778,-0.974182665,0.028745722,-0.174632147,0.352562975,-1.30580928,0.435975743
-0.905733585,-0.345304281,-0.245787695,-0.020969927,0.016657859,0.042225778,-0.974182665,0.028745722,-0.174632147,0.352562975,-1.30580928,0.435975743
-0.905733585,-0.345304281,-0.245787695,-0.020969927,0.016657859,0.042225778,-0.974182665,0.028745722,-0.174632147,0.352562975,-1.30580928,0.435975743
-0.905733585,-0.345304281,-0.245787695,-0.020969927,0.016657859,0.042225778,-0.974182665,0.028745722,-0.174632147,0.352562975,-1.30580928,0.435975743
-0.903042495,-0.34793818,-0.251899421,-0.033197701,0.064106852,0.05022949,-0.166406453,0.037716232,-0.269241691,0.355370963,-1.29876596,0.41118812
-0.903042495,-0.34793818,-0.251899421,-0.033197701,0.064106852,0.05022949,-0.166406453,0.037716232,-0.269241691,0.355370963,-1.29876596,0.41118812
-0.903042495,-0.34793818,-0.251899421,-0.033197701,0.064106852,0.05022949,-0.166406453,0.037716232,-0.269241691,0.355370963,-1.29876596,0.41118812
-0.903042495,-0.34793818,-0.251899421,-0.033197701,0.064106852,0.05022949,-0.166406453,0.037716232,-0.269241691,0.355370963,-1.29876596,0.41118812
-0.903042495,-0.34793818,-0.251899421,-0.033197701,0.064106852,0.05022949,-0.166406453,0.037716232,-0.269241691,0.355370963,-1.29876596,0.41118812
-0.903042495,-0.34793818,-0.251899421,-0.033197701,0.064106852,0.05022949,-0.166406453,0.037716232,-0.269241691,0.355370963,-1.29876596,0.41118812
-0.903042495,-0.34793818,-0.251899421,-0.033197701,0.064106852,0.05022949,-0.166406453,0.037716232,-0.269241691,0.355370963,-1.29876596,0.41118812
-0.903042495,-0.34793818,-0.251899421,-0.033197701,0.064106852,0.05022949,-0.166406453,0.037716232,-0.269241691,0.355370963,-1.29876596,0.41118812
-0.898763597,-0.359420419,-0.251079172,-0.018479228,0.061673045,0.025056124,8.99E-05,0.041738547,-0.334167093,0.367646741,-1.298380597,0.408025034
-0.898763597,-0.359420419,-0.251079172,-0.018479228,0.061673045,0.025056124,8.99E-05,0.041738547,-0.334167093,0.367646741,-1.298380597,0.408025034
-0.898763597,-0.359420419,-0.251079172,-0.018479228,0.061673045,0.025056124,8.99E-05,0.041738547,-0.334167093,0.367646741,-1.298380597,0.408025034
-0.898763597,-0.359420419,-0.251079172,-0.018479228,0.061673045,0.025056124,8.99E-05,0.041738547,-0.334167093,0.367646741,-1.298380597,0.408025034
-0.898763597,-0.359420419,-0.251079172,-0.018479228,0.061673045,0.025056124,8.99E-05,0.041738547,-0.334167093,0.367646741,-1.298380597,0.408025034
-0.898763597,-0.359420419,-0.251079172,-0.018479228,0.061673045,0.025056124,8.99E-05,0.041738547,-0.334167093,0.367646741,-1.298380597,0.408025034
-0.895839036,-0.36346221,-0.255670875,-0.021358192,-0.02228269,0.004974484,-0.595088482,0.099963292,-0.202075645,0.371981601,-1.292788891,0.393403407
-0.895839036,-0.36346221,-0.255670875,-0.021358192,-0.02228269,0.004974484,-0.595088482,0.099963292,-0.202075645,0.371981601,-1.292788891,0.393403407
-0.895839036,-0.36346221,-0.255670875,-0.021358192,-0.02228269,0.004974484,-0.595088482,0.099963292,-0.202075645,0.371981601,-1.292788891,0.393403407
-0.895839036,-0.36346221,-0.255670875,-0.021358192,-0.02228269,0.004974484,-0.595088482,0.099963292,-0.202075645,0.371981601,-1.292788891,0.393403407
-0.895470798,-0.359150529,-0.262950271,0.017077208,0.070482254,0.00965935,-0.211584821,-0.050012771,0.152454793,0.367357549,-1.285180229,0.372432692
-0.895470798,-0.359150529,-0.262950271,0.017077208,0.070482254,0.00965935,-0.211584821,-0.050012771,0.152454793,0.367357549,-1.285180229,0.372432692
-0.895470798,-0.359150529,-0.262950271,0.017077208,0.070482254,0.00965935,-0.211584821,-0.050012771,0.152454793,0.367357549,-1.285180229,0.372432692
-0.895470798,-0.359150529,-0.262950271,0.017077208,0.070482254,0.00965935,-0.211584821,-0.050012771,0.152454793,0.367357549,-1.285180229,0.372432692
-0.895470798,-0.359150529,-0.262950271,0.017077208,0.070482254,0.00965935,-0.211584821,-0.050012771,0.152454793,0.367357549,-1.285180229,0.372432692
-0.895470798,-0.359150529,-0.262950271,0.017077208,0.070482254,0.00965935,-0.211584821,-0.050012771,0.152454793,0.367357549,-1.285180229,0.372432692
-0.895470798,-0.359150529,-0.262950271,0.017077208,0.070482254,0.00965935,-0.211584821,-0.050012771,0.152454793,0.367357549,-1.285180229,0.372432692
-0.895470798,-0.359150529,-0.262950271,0.017077208,0.070482254,0.00965935,-0.211584821,-0.050012771,0.152454793,0.367357549,-1.285180229,0.372432692
-0.895470798,-0.359150529,-0.262950271,0.017077208,0.070482254,0.00965935,-0.211584821,-0.050012771,0.152454793,0.367357549,-1.285180229,0.372432692
-0.895470798,-0.359150529,-0.262950271,0.017077208,0.070482254,0.00965935,-0.211584821,-0.050012771,0.152454793,0.367357549,-1.285180229,0.372432692
-0.895470798,-0.359150529,-0.262950271,0.017077208,0.070482254,0.00965935,-0.211584821,-0.050012771,0.152454793,0.367357549,-1.285180229,0.372432692
-0.894036949,-0.36229226,-0.263518929,-0.011547983,0.01396203,0.014286995,-0.335334301,0.119938783,-0.123153627,0.370726051,-1.284161384,0.371647068
-0.894036949,-0.36229226,-0.263518929,-0.011547983,0.01396203,0.014286995,-0.335334301,0.119938783,-0.123153627,0.370726051,-1.284161384,0.371647068
-0.894036949,-0.36229226,-0.263518929,-0.011547983,0.01396203,0.014286995,-0.335334301,0.119938783,-0.123153627,0.370726051,-1.284161384,0.371647068
-0.894036949,-0.36229226,-0.263518929,-0.011547983,0.01396203,0.014286995,-0.335334301,0.119938783,-0.123153627,0.370726051,-1.284161384,0.371647068
-0.894036949,-0.36229226,-0.263518929,-0.011547983,0.01396203,0.014286995,-0.335334301,0.119938783,-0.123153627,0.370726051,-1.284161384,0.371647068
-0.894036949,-0.36229226,-0.263518929,-0.011547983,0.01396203,0.014286995,-0.335334301,0.119938783,-0.123153627,0.370726051,-1.284161384,0.371647068
-0.894036949,-0.36229226,-0.263518929,-0.011547983,0.01396203,0.014286995,-0.335334301,0.119938783,-0.123153627,0.370726051,-1.284161384,0.371647068
-0.894036949,-0.36229226,-0.263518929,-0.011547983,0.01396203,0.014286995,-0.335334301,0.119938783,-0.123153627,0.370726051,-1.284161384,0.371647068
-0.894036949,-0.36229226,-0.263518929,-0.011547983,0.01396203,0.014286995,-0.335334301,0.119938783,-0.123153627,0.370726051,-1.284161384,0.371647068
-0.894036949,-0.36229226,-0.263518929,-0.011547983,0.01396203,0.014286995,-0.335334301,0.119938783,-0.123153627,0.370726051,-1.284161384,0.371647068
-0.894036949,-0.36229226,-0.263518929,-0.011547983,0.01396203,0.014286995,-0.335334301,0.119938783,-0.123153627,0.370726051,-1.284161384,0.371647068
-0.894036949,-0.36229226,-0.263518929,-0.011547983,0.01396203,0.014286995,-0.335334301,0.119938783,-0.123153627,0.370726051,-1.284161384,0.371647068
-0.894036949,-0.36229226,-0.263518929,-0.011547983,0.01396203,0.014286995,-0.335334301,0.119938783,-0.123153627,0.370726051,-1.284161384,0.371647068
-0.894036949,-0.36229226,-0.263518929,-0.011547983,0.01396203,0.014286995,-0.335334301,0.119938783,-0.123153627,0.370726051,-1.284161384,0.371647068
-0.894036949,-0.36229226,-0.263518929,-0.011547983,0.01396203,0.014286995,-0.335334301,0.119938783,-0.123153627,0.370726051,-1.284161384,0.371647068
-0.894036949,-0.36229226,-0.263518929,-0.011547983,0.01396203,0.014286995,-0.335334301,0.119938783,-0.123153627,0.370726051,-1.284161384,0.371647068
-0.894036949,-0.36229226,-0.263518929,-0.011547983,0.01396203,0.014286995,-0.335334301,0.119938783,-0.123153627,0.370726051,-1.284161384,0.371647068
-0.894036949,-0.36229226,-0.263518929,-0.011547983,0.01396203,0.014286995,-0.335334301,0.119938783,-0.123153627,0.370726051,-1.284161384,0.371647068
-0.894063056,-0.35599786,-0.271876395,0.006788611,0.089698881,-0.016616464,-0.026113363,0.095574111,0.1377251,0.363981654,-1.275590706,0.358955548
-0.894063056,-0.35599786,-0.271876395,0.006788611,0.089698881,-0.016616464,-0.026113363,0.095574111,0.1377251,0.363981654,-1.275590706,0.358955548
-0.894063056,-0.35599786,-0.271876395,0.006788611,0.089698881,-0.016616464,-0.026113363,0.095574111,0.1377251,0.363981654,-1.275590706,0.358955548
-0.894063056,-0.35599786,-0.271876395,0.006788611,0.089698881,-0.016616464,-0.026113363,0.095574111,0.1377251,0.363981654,-1.275590706,0.358955548
-0.894063056,-0.35599786,-0.271876395,0.006788611,0.089698881,-0.016616464,-0.026113363,0.095574111,0.1377251,0.363981654,-1.275590706,0.358955548
-0.894063056,-0.35599786,-0.271876395,0.006788611,0.089698881,-0.016616464,-0.026113363,0.095574111,0.1377251,0.363981654,-1.275590706,0.358955548
-0.894063056,-0.35599786,-0.271876395,0.006788611,0.089698881,-0.016616464,-0.026113363,0.095574111,0.1377251,0.363981654,-1.275590706,0.358955548
-0.894063056,-0.35599786,-0.271876395,0.006788611,0.089698881,-0.016616464,-0.026113363,0.095574111,0.1377251,0.363981654,-1.275590706,0.358955548
-0.894063056,-0.35599786,-0.271876395,0.006788611,0.089698881,-0.016616464,-0.026113363,0.095574111,0.1377251,0.363981654,-1.275590706,0.358955548
-0.894063056,-0.35599786,-0.271876395,0.006788611,0.089698881,-0.016616464,-0.026113363,0.095574111,0.1377251,0.363981654,-1.275590706,0.358955548
-0.894063056,-0.35599786,-0.271876395,0.006788611,0.089698881,-0.016616464,-0.026113363,0.095574111,0.1377251,0.363981654,-1.275590706,0.358955548
-0.894063056,-0.35599786,-0.271876395,0.006788611,0.089698881,-0.016616464,-0.026113363,0.095574111,0.1377251,0.363981654,-1.275590706,0.358955548
-0.894063056,-0.35599786,-0.271876395,0.006788611,0.089698881,-0.016616464,-0.026113363,0.095574111,0.1377251,0.363981654,-1.275590706,0.358955548
-0.894063056,-0.35599786,-0.271876395,0.006788611,0.089698881,-0.016616464,-0.026113363,0.095574111,0.1377251,0.363981654,-1.275590706,0.358955548
-0.893701077,-0.356067657,-0.272972792,0.010104179,0.034638762,-0.034257948,0.309094399,0.12686038,-0.078672439,0.364056362,-1.274355445,0.36831239
-0.893701077,-0.356067657,-0.272972792,0.010104179,0.034638762,-0.034257948,0.309094399,0.12686038,-0.078672439,0.364056362,-1.274355445,0.36831239
-0.893701077,-0.356067657,-0.272972792,0.010104179,0.034638762,-0.034257948,0.309094399,0.12686038,-0.078672439,0.364056362,-1.274355445,0.36831239
-0.893701077,-0.356067657,-0.272972792,0.010104179,0.034638762,-0.034257948,0.309094399,0.12686038,-0.078672439,0.364056362,-1.274355445,0.36831239
-0.893701077,-0.356067657,-0.272972792,0.010104179,0.034638762,-0.034257948,0.309094399,0.12686038,-0.078672439,0.364056362,-1.274355445,0.36831239
-0.893701077,-0.356067657,-0.272972792,0.010104179,0.034638762,-0.034257948,0.309094399,0.12686038,-0.078672439,0.364056362,-1.274355445,0.36831239
-0.893701077,-0.356067657,-0.272972792,0.010104179,0.034638762,-0.034257948,0.309094399,0.12686038,-0.078672439,0.364056362,-1.274355445,0.36831239
-0.893701077,-0.356067657,-0.272972792,0.010104179,0.034638762,-0.034257948,0.309094399,0.12686038,-0.078672439,0.364056362,-1.274355445,0.36831239
-0.893701077,-0.356067657,-0.272972792,0.010104179,0.034638762,-0.034257948,0.309094399,0.12686038,-0.078672439,0.364056362,-1.274355445,0.36831239
-0.893701077,-0.356067657,-0.272972792,0.010104179,0.034638762,-0.034257948,0.309094399,0.12686038,-0.078672439,0.364056362,-1.274355445,0.36831239
-0.889866769,-0.363870859,-0.27519986,-0.013947964,-0.078300864,-0.017397702,0.084395498,0.263272375,-0.070996732,0.372420264,-1.270866254,0.376279698
-0.889866769,-0.363870859,-0.27519986,-0.013947964,-0.078300864,-0.017397702,0.084395498,0.263272375,-0.070996732,0.372420264,-1.270866254,0.376279698
-0.889866769,-0.363870859,-0.27519986,-0.013947964,-0.078300864,-0.017397702,0.084395498,0.263272375,-0.070996732,0.372420264,-1.270866254,0.376279698
-0.889866769,-0.363870859,-0.27519986,-0.013947964,-0.078300864,-0.017397702,0.084395498,0.263272375,-0.070996732,0.372420264,-1.270866254,0.376279698
-0.889866769,-0.363870859,-0.27519986,-0.013947964,-0.078300864,-0.017397702,0.084395498,0.263272375,-0.070996732,0.372420264,-1.270866254,0.376279698
-0.889866769,-0.363870859,-0.27519986,-0.013947964,-0.078300864,-0.017397702,0.084395498,0.263272375,-0.070996732,0.372420264,-1.270866254,0.376279698
-0.889866769,-0.363870859,-0.27519986,-0.013947964,-0.078300864,-0.017397702,0.084395498,0.263272375,-0.070996732,0.372420264,-1.270866254,0.376279698
-0.889866769,-0.363870859,-0.27519986,-0.013947964,-0.078300864,-0.017397702,0.084395498,0.263272375,-0.070996732,0.372420264,-1.270866254,0.376279698
-0.889866769,-0.363870859,-0.27519986,-0.013947964,-0.078300864,-0.017397702,0.084395498,0.263272375,-0.070996732,0.372420264,-1.270866254,0.376279698
-0.889866769,-0.363870859,-0.27519986,-0.013947964,-0.078300864,-0.017397702,0.084395498,0.263272375,-0.070996732,0.372420264,-1.270866254,0.376279698
-0.889866769,-0.363870859,-0.27519986,-0.013947964,-0.078300864,-0.017397702,0.084395498,0.263272375,-0.070996732,0.372420264,-1.270866254,0.376279698
-0.889866769,-0.363870859,-0.27519986,-0.013947964,-0.078300864,-0.017397702,0.084395498,0.263272375,-0.070996732,0.372420264,-1.270866254,0.376279698
-0.889866769,-0.363870859,-0.27519986,-0.013947964,-0.078300864,-0.017397702,0.084395498,0.263272375,-0.070996732,0.372420264,-1.270866254,0.376279698
-0.889866769,-0.363870859,-0.27519986,-0.013947964,-0.078300864,-0.017397702,0.084395498,0.263272375,-0.070996732,0.372420264,-1.270866254,0.376279698
-0.889866769,-0.363870859,-0.27519986,-0.013947964,-0.078300864,-0.017397702,0.084395498,0.263272375,-0.070996732,0.372420264,-1.270866254,0.376279698
-0.886013925,-0.363817483,-0.287430286,0.042410493,-0.058288872,-0.005716801,-0.019425912,0.276063323,-0.060020249,0.372362969,-1.257099662,0.375493178
-0.886013925,-0.363817483,-0.287430286,0.042410493,-0.058288872,-0.005716801,-0.019425912,0.276063323,-0.060020249,0.372362969,-1.257099662,0.375493178
-0.886013925,-0.363817483,-0.287430286,0.042410493,-0.058288872,-0.005716801,-0.019425912,0.276063323,-0.060020249,0.372362969,-1.257099662,0.375493178
-0.886013925,-0.363817483,-0.287430286,0.042410493,-0.058288872,-0.005716801,-0.019425912,0.276063323,-0.060020249,0.372362969,-1.257099662,0.375493178
-0.886013925,-0.363817483,-0.287430286,0.042410493,-0.058288872,-0.005716801,-0.019425912,0.276063323,-0.060020249,0.372362969,-1.257099662,0.375493178
-0.886013925,-0.363817483,-0.287430286,0.042410493,-0.058288872,-0.005716801,-0.019425912,0.276063323,-0.060020249,0.372362969,-1.257099662,0.375493178
-0.886013925,-0.363817483,-0.287430286,0.042410493,-0.058288872,-0.005716801,-0.019425912,0.276063323,-0.060020249,0.372362969,-1.257099662,0.375493178
-0.886013925,-0.363817483,-0.287430286,0.042410493,-0.058288872,-0.005716801,-0.019425912,0.276063323,-0.060020249,0.372362969,-1.257099662,0.375493178
-0.886013925,-0.363817483,-0.287430286,0.042410493,-0.058288872,-0.005716801,-0.019425912,0.276063323,-0.060020249,0.372362969,-1.257099662,0.375493178
-0.886013925,-0.363817483,-0.287430286,0.042410493,-0.058288872,-0.005716801,-0.019425912,0.276063323,-0.060020249,0.372362969,-1.257099662,0.375493178
-0.886013925,-0.363817483,-0.287430286,0.042410493,-0.058288872,-0.005716801,-0.019425912,0.276063323,-0.060020249,0.372362969,-1.257099662,0.375493178
-0.886013925,-0.363817483,-0.287430286,0.042410493,-0.058288872,-0.005716801,-0.019425912,0.276063323,-0.060020249,0.372362969,-1.257099662,0.375493178
-0.882537067,-0.363380075,-0.298467994,0.020394742,-0.124979764,-0.02480042,-0.35893628,0.157136947,-0.003635535,0.371893434,-1.24467832,0.366466385
-0.882537067,-0.363380075,-0.298467994,0.020394742,-0.124979764,-0.02480042,-0.35893628,0.157136947,-0.003635535,0.371893434,-1.24467832,0.366466385
-0.882537067,-0.363380075,-0.298467994,0.020394742,-0.124979764,-0.02480042,-0.35893628,0.157136947,-0.003635535,0.371893434,-1.24467832,0.366466385
-0.882537067,-0.363380075,-0.298467994,0.020394742,-0.124979764,-0.02480042,-0.35893628,0.157136947,-0.003635535,0.371893434,-1.24467832,0.366466385
-0.882537067,-0.363380075,-0.298467994,0.020394742,-0.124979764,-0.02480042,-0.35893628,0.157136947,-0.003635535,0.371893434,-1.24467832,0.366466385
-0.882537067,-0.363380075,-0.298467994,0.020394742,-0.124979764,-0.02480042,-0.35893628,0.157136947,-0.003635535,0.371893434,-1.24467832,0.366466385
-0.882537067,-0.363380075,-0.298467994,0.020394742,-0.124979764,-0.02480042,-0.35893628,0.157136947,-0.003635535,0.371893434,-1.24467832,0.366466385
-0.882537067,-0.363380075,-0.298467994,0.020394742,-0.124979764,-0.02480042,-0.35893628,0.157136947,-0.003635535,0.371893434,-1.24467832,0.366466385
-0.882537067,-0.363380075,-0.298467994,0.020394742,-0.124979764,-0.02480042,-0.35893628,0.157136947,-0.003635535,0.371893434,-1.24467832,0.366466385
-0.882537067,-0.363380075,-0.298467994,0.020394742,-0.124979764,-0.02480042,-0.35893628,0.157136947,-0.003635535,0.371893434,-1.24467832,0.366466385
-0.882537067,-0.363380075,-0.298467994,0.020394742,-0.124979764,-0.02480042,-0.35893628,0.157136947,-0.003635535,0.371893434,-1.24467832,0.366466385
-0.882537067,-0.363380075,-0.298467994,0.020394742,-0.124979764,-0.02480042,-0.35893628,0.157136947,-0.003635535,0.371893434,-1.24467832,0.366466385
-0.879616618,-0.364881456,-0.305181891,0.026675045,0.022715956,-0.011372387,0.046340548,0.134611472,-0.099064209,0.373505473,-1.236842366,0.35762538
-0.879616618,-0.364881456,-0.305181891,0.026675045,0.022715956,-0.011372387,0.046340548,0.134611472,-0.099064209,0.373505473,-1.236842366,0.35762538
-0.879616618,-0.364881456,-0.305181891,0.026675045,0.022715956,-0.011372387,0.046340548,0.134611472,-0.099064209,0.373505473,-1.236842366,0.35762538
-0.879616618,-0.364881456,-0.305181891,0.026675045,0.022715956,-0.011372387,0.046340548,0.134611472,-0.099064209,0.373505473,-1.236842366,0.35762538
-0.879616618,-0.364881456,-0.305181891,0.026675045,0.022715956,-0.011372387,0.046340548,0.134611472,-0.099064209,0.373505473,-1.236842366,0.35762538
-0.879616618,-0.364881456,-0.305181891,0.026675045,0.022715956,-0.011372387,0.046340548,0.134611472,-0.099064209,0.373505473,-1.236842366,0.35762538
-0.879616618,-0.364881456,-0.305181891,0.026675045,0.022715956,-0.011372387,0.046340548,0.134611472,-0.099064209,0.373505473,-1.236842366,0.35762538
-0.879616618,-0.364881456,-0.305181891,0.026675045,0.022715956,-0.011372387,0.046340548,0.134611472,-0.099064209,0.373505473,-1.236842366,0.35762538
-0.879616618,-0.364881456,-0.305181891,0.026675045,0.022715956,-0.011372387,0.046340548,0.134611472,-0.099064209,0.373505473,-1.236842366,0.35762538
-0.879616618,-0.364881456,-0.305181891,0.026675045,0.022715956,-0.011372387,0.046340548,0.134611472,-0.099064209,0.373505473,-1.236842366,0.35762538
-0.879616618,-0.364881456,-0.305181891,0.026675045,0.022715956,-0.011372387,0.046340548,0.134611472,-0.099064209,0.373505473,-1.236842366,0.35762538
-0.879616618,-0.364881456,-0.305181891,0.026675045,0.022715956,-0.011372387,0.046340548,0.134611472,-0.099064209,0.373505473,-1.236842366,0.35762538
-0.874684215,-0.372962087,-0.309559166,0.016432405,0.01338616,0.102517366,0.029702099,0.187056422,-0.062716112,0.382199408,-1.230642778,0.359220239
-0.874684215,-0.372962087,-0.309559166,0.016432405,0.01338616,0.102517366,0.029702099,0.187056422,-0.062716112,0.382199408,-1.230642778,0.359220239
-0.874684215,-0.372962087,-0.309559166,0.016432405,0.01338616,0.102517366,0.029702099,0.187056422,-0.062716112,0.382199408,-1.230642778,0.359220239
-0.874684215,-0.372962087,-0.309559166,0.016432405,0.01338616,0.102517366,0.029702099,0.187056422,-0.062716112,0.382199408,-1.230642778,0.359220239
-0.874684215,-0.372962087,-0.309559166,0.016432405,0.01338616,0.102517366,0.029702099,0.187056422,-0.062716112,0.382199408,-1.230642778,0.359220239
-0.874684215,-0.372962087,-0.309559166,0.016432405,0.01338616,0.102517366,0.029702099,0.187056422,-0.062716112,0.382199408,-1.230642778,0.359220239
-0.875516117,-0.370295167,-0.310407907,0.056784272,-0.037452877,-0.015698075,-0.358276665,-0.196212113,-0.012643091,0.379326742,-1.230080254,0.350603178
-0.875516117,-0.370295167,-0.310407907,0.056784272,-0.037452877,-0.015698075,-0.358276665,-0.196212113,-0.012643091,0.379326742,-1.230080254,0.350603178
-0.875516117,-0.370295167,-0.310407907,0.056784272,-0.037452877,-0.015698075,-0.358276665,-0.196212113,-0.012643091,0.379326742,-1.230080254,0.350603178
-0.875516117,-0.370295167,-0.310407907,0.056784272,-0.037452877,-0.015698075,-0.358276665,-0.196212113,-0.012643091,0.379326742,-1.230080254,0.350603178
-0.875516117,-0.370295167,-0.310407907,0.056784272,-0.037452877,-0.015698075,-0.358276665,-0.196212113,-0.012643091,0.379326742,-1.230080254,0.350603178
-0.875516117,-0.370295167,-0.310407907,0.056784272,-0.037452877,-0.015698075,-0.358276665,-0.196212113,-0.012643091,0.379326742,-1.230080254,0.350603178
-0.875516117,-0.370295167,-0.310407907,0.056784272,-0.037452877,-0.015698075,-0.358276665,-0.196212113,-0.012643091,0.379326742,-1.230080254,0.350603178
-0.875516117,-0.370295167,-0.310407907,0.056784272,-0.037452877,-0.015698075,-0.358276665,-0.196212113,-0.012643091,0.379326742,-1.230080254,0.350603178
-0.875516117,-0.370295167,-0.310407907,0.056784272,-0.037452877,-0.015698075,-0.358276665,-0.196212113,-0.012643091,0.379326742,-1.230080254,0.350603178
-0.875516117,-0.370295167,-0.310407907,0.056784272,-0.037452877,-0.015698075,-0.358276665,-0.196212113,-0.012643091,0.379326742,-1.230080254,0.350603178
-0.875516117,-0.370295167,-0.310407907,0.056784272,-0.037452877,-0.015698075,-0.358276665,-0.196212113,-0.012643091,0.379326742,-1.230080254,0.350603178
-0.875516117,-0.370295167,-0.310407907,0.056784272,-0.037452877,-0.015698075,-0.358276665,-0.196212113,-0.012643091,0.379326742,-1.230080254,0.350603178
-0.875491142,-0.368558198,-0.312538117,-0.055819988,0.043863803,0.014752388,-0.311643213,0.268703729,-0.226619184,0.377457574,-1.227911451,0.339234997
-0.875491142,-0.368558198,-0.312538117,-0.055819988,0.043863803,0.014752388,-0.311643213,0.268703729,-0.226619184,0.377457574,-1.227911451,0.339234997
-0.875491142,-0.368558198,-0.312538117,-0.055819988,0.043863803,0.014752388,-0.311643213,0.268703729,-0.226619184,0.377457574,-1.227911451,0.339234997
-0.875491142,-0.368558198,-0.312538117,-0.055819988,0.043863803,0.014752388,-0.311643213,0.268703729,-0.226619184,0.377457574,-1.227911451,0.339234997