gravityX,gravityY,gravityZ,accelX,accelY,accelZ,rotRateX,rotRatY,rotRateZ,attPitch,attRoll,attYaw
-0.937222481,-0.31400311,-0.151709214,0.041745305,0.084053189,0.004461706,0.067430966,0.149338141,-0.046487343,0.319406462,-1.410317221,0.272497689
-0.937222481,-0.31400311,-0.151709214,0.041745305,0.084053189,0.004461706,0.067430966,0.149338141,-0.046487343,0.319406462,-1.410317221,0.272497689
-0.937222481,-0.31400311,-0.151709214,0.041745305,0.084053189,0.004461706,0.067430966,0.149338141,-0.046487343,0.319406462,-1.410317221,0.272497689
-0.937222481,-0.31400311,-0.151709214,0.041745305,0.084053189,0.004461706,0.067430966,0.149338141,-0.046487343,0.319406462,-1.410317221,0.272497689
-0.937222481,-0.31400311,-0.151709214,0.041745305,0.084053189,0.004461706,0.067430966,0.149338141,-0.046487343,0.319406462,-1.410317221,0.272497689
-0.937222481,-0.31400311,-0.151709214,0.041745305,0.084053189,0.004461706,0.067430966,0.149338141,-0.046487343,0.319406462,-1.410317221,0.272497689
-0.937222481,-0.31400311,-0.151709214,0.041745305,0.084053189,0.004461706,0.067430966,0.149338141,-0.046487343,0.319406462,-1.410317221,0.272497689
-0.937222481,-0.31400311,-0.151709214,0.041745305,0.084053189,0.004461706,0.067430966,0.149338141,-0.046487343,0.319406462,-1.410317221,0.272497689
-0.937222481,-0.31400311,-0.151709214,0.041745305,0.084053189,0.004461706,0.067430966,0.149338141,-0.046487343,0.319406462,-1.410317221,0.272497689
-0.935625196,-0.316992044,-0.155310139,0.015031636,0.01564613,0.034597993,-0.02371994,0.064966336,-0.051112026,0.322556271,-1.406300161,0.27445748
-0.935625196,-0.316992044,-0.155310139,0.015031636,0.01564613,0.034597993,-0.02371994,0.064966336,-0.051112026,0.322556271,-1.406300161,0.27445748
-0.935625196,-0.316992044,-0.155310139,0.015031636,0.01564613,0.034597993,-0.02371994,0.064966336,-0.051112026,0.322556271,-1.406300161,0.27445748
-0.935625196,-0.316992044,-0.155310139,0.015031636,0.01564613,0.034597993,-0.02371994,0.064966336,-0.051112026,0.322556271,-1.406300161,0.27445748
-0.935625196,-0.316992044,-0.155310139,0.015031636,0.01564613,0.034597993,-0.02371994,0.064966336,-0.051112026,0.322556271,-1.406300161,0.27445748
-0.935625196,-0.316992044,-0.155310139,0.015031636,0.01564613,0.034597993,-0.02371994,0.064966336,-0.051112026,0.322556271,-1.406300161,0.27445748
-0.935625196,-0.316992044,-0.155310139,0.015031636,0.01564613,0.034597993,-0.02371994,0.064966336,-0.051112026,0.322556271,-1.406300161,0.27445748
-0.935625196,-0.316992044,-0.155310139,0.015031636,0.01564613,0.034597993,-0.02371994,0.064966336,-0.051112026,0.322556271,-1.406300161,0.27445748
-0.935625196,-0.316992044,-0.155310139,0.015031636,0.01564613,0.034597993,-0.02371994,0.064966336,-0.051112026,0.322556271,-1.406300161,0.27445748
-0.935625196,-0.316992044,-0.155310139,0.015031636,0.01564613,0.034597993,-0.02371994,0.064966336,-0.051112026,0.322556271,-1.406300161,0.27445748
-0.935625196,-0.316992044,-0.155310139,0.015031636,0.01564613,0.034597993,-0.02371994,0.064966336,-0.051112026,0.322556271,-1.406300161,0.27445748
-0.935625196,-0.316992044,-0.155310139,0.015031636,0.01564613,0.034597993,-0.02371994,0.064966336,-0.051112026,0.322556271,-1.406300161,0.27445748
-0.935625196,-0.316992044,-0.155310139,0.015031636,0.01564613,0.034597993,-0.02371994,0.064966336,-0.051112026,0.322556271,-1.406300161,0.27445748
-0.935625196,-0.316992044,-0.155310139,0.015031636,0.01564613,0.034597993,-0.02371994,0.064966336,-0.051112026,0.322556271,-1.406300161,0.27445748
-0.935625196,-0.316992044,-0.155310139,0.015031636,0.01564613,0.034597993,-0.02371994,0.064966336,-0.051112026,0.322556271,-1.406300161,0.27445748
-0.935625196,-0.316992044,-0.155310139,0.015031636,0.01564613,0.034597993,-0.02371994,0.064966336,-0.051112026,0.322556271,-1.406300161,0.27445748
-0.935625196,-0.316992044,-0.155310139,0.015031636,0.01564613,0.034597993,-0.02371994,0.064966336,-0.051112026,0.322556271,-1.406300161,0.27445748
-0.935625196,-0.316992044,-0.155310139,0.015031636,0.01564613,0.034597993,-0.02371994,0.064966336,-0.051112026,0.322556271,-1.406300161,0.27445748
-0.935625196,-0.316992044,-0.155310139,0.015031636,0.01564613,0.034597993,-0.02371994,0.064966336,-0.051112026,0.322556271,-1.406300161,0.27445748
-0.935625196,-0.316992044,-0.155310139,0.015031636,0.01564613,0.034597993,-0.02371994,0.064966336,-0.051112026,0.322556271,-1.406300161,0.27445748
-0.935625196,-0.316992044,-0.155310139,0.015031636,0.01564613,0.034597993,-0.02371994,0.064966336,-0.051112026,0.322556271,-1.406300161,0.27445748
-0.935625196,-0.316992044,-0.155310139,0.015031636,0.01564613,0.034597993,-0.02371994,0.064966336,-0.051112026,0.322556271,-1.406300161,0.27445748
-0.935625196,-0.316992044,-0.155310139,0.015031636,0.01564613,0.034597993,-0.02371994,0.064966336,-0.051112026,0.322556271,-1.406300161,0.27445748
-0.935625196,-0.316992044,-0.155310139,0.015031636,0.01564613,0.034597993,-0.02371994,0.064966336,-0.051112026,0.322556271,-1.406300161,0.27445748
-0.935244143,-0.315460861,-0.160632357,-0.033734858,-0.033171982,0.015261829,-0.366302907,0.072451673,-0.010405343,0.320942273,-1.400701482,0.264181254
-0.935244143,-0.315460861,-0.160632357,-0.033734858,-0.033171982,0.015261829,-0.366302907,0.072451673,-0.010405343,0.320942273,-1.400701482,0.264181254
-0.935244143,-0.315460861,-0.160632357,-0.033734858,-0.033171982,0.015261829,-0.366302907,0.072451673,-0.010405343,0.320942273,-1.400701482,0.264181254
-0.935244143,-0.315460861,-0.160632357,-0.033734858,-0.033171982,0.015261829,-0.366302907,0.072451673,-0.010405343,0.320942273,-1.400701482,0.264181254
-0.935244143,-0.315460861,-0.160632357,-0.033734858,-0.033171982,0.015261829,-0.366302907,0.072451673,-0.010405343,0.320942273,-1.400701482,0.264181254
-0.935244143,-0.315460861,-0.160632357,-0.033734858,-0.033171982,0.015261829,-0.366302907,0.072451673,-0.010405343,0.320942273,-1.400701482,0.264181254
-0.935244143,-0.315460861,-0.160632357,-0.033734858,-0.033171982,0.015261829,-0.366302907,0.072451673,-0.010405343,0.320942273,-1.400701482,0.264181254
-0.935244143,-0.315460861,-0.160632357,-0.033734858,-0.033171982,0.015261829,-0.366302907,0.072451673,-0.010405343,0.320942273,-1.400701482,0.264181254
-0.935244143,-0.315460861,-0.160632357,-0.033734858,-0.033171982,0.015261829,-0.366302907,0.072451673,-0.010405343,0.320942273,-1.400701482,0.264181254
-0.935244143,-0.315460861,-0.160632357,-0.033734858,-0.033171982,0.015261829,-0.366302907,0.072451673,-0.010405343,0.320942273,-1.400701482,0.264181254
-0.935244143,-0.315460861,-0.160632357,-0.033734858,-0.033171982,0.015261829,-0.366302907,0.072451673,-0.010405343,0.320942273,-1.400701482,0.264181254
-0.935244143,-0.315460861,-0.160632357,-0.033734858,-0.033171982,0.015261829,-0.366302907,0.072451673,-0.010405343,0.320942273,-1.400701482,0.264181254
-0.935244143,-0.315460861,-0.160632357,-0.033734858,-0.033171982,0.015261829,-0.366302907,0.072451673,-0.010405343,0.320942273,-1.400701482,0.264181254
-0.935244143,-0.315460861,-0.160632357,-0.033734858,-0.033171982,0.015261829,-0.366302907,0.072451673,-0.010405343,0.320942273,-1.400701482,0.264181254
-0.934081078,-0.315498531,-0.167191848,-0.005509496,0.053245693,-0.027617157,-0.110741898,0.101332165,-0.071158066,0.320981983,-1.39368117,0.253312957
-0.934081078,-0.315498531,-0.167191848,-0.005509496,0.053245693,-0.027617157,-0.110741898,0.101332165,-0.071158066,0.320981983,-1.39368117,0.253312957
-0.934081078,-0.315498531,-0.167191848,-0.005509496,0.053245693,-0.027617157,-0.110741898,0.101332165,-0.071158066,0.320981983,-1.39368117,0.253312957
-0.934081078,-0.315498531,-0.167191848,-0.005509496,0.053245693,-0.027617157,-0.110741898,0.101332165,-0.071158066,0.320981983,-1.39368117,0.253312957
-0.934081078,-0.315498531,-0.167191848,-0.005509496,0.053245693,-0.027617157,-0.110741898,0.101332165,-0.071158066,0.320981983,-1.39368117,0.253312957
-0.934081078,-0.315498531,-0.167191848,-0.005509496,0.053245693,-0.027617157,-0.110741898,0.101332165,-0.071158066,0.320981983,-1.39368117,0.253312957
-0.934081078,-0.315498531,-0.167191848,-0.005509496,0.053245693,-0.027617157,-0.110741898,0.101332165,-0.071158066,0.320981983,-1.39368117,0.253312957
-0.934081078,-0.315498531,-0.167191848,-0.005509496,0.053245693,-0.027617157,-0.110741898,0.101332165,-0.071158066,0.320981983,-1.39368117,0.253312957
-0.934081078,-0.315498531,-0.167191848,-0.005509496,0.053245693,-0.027617157,-0.110741898,0.101332165,-0.071158066,0.320981983,-1.39368117,0.253312957
-0.934081078,-0.315498531,-0.167191848,-0.005509496,0.053245693,-0.027617157,-0.110741898,0.101332165,-0.071158066,0.320981983,-1.39368117,0.253312957
-0.934081078,-0.315498531,-0.167191848,-0.005509496,0.053245693,-0.027617157,-0.110741898,0.101332165,-0.071158066,0.320981983,-1.39368117,0.253312957
-0.934081078,-0.315498531,-0.167191848,-0.005509496,0.053245693,-0.027617157,-0.110741898,0.101332165,-0.071158066,0.320981983,-1.39368117,0.253312957
-0.934081078,-0.315498531,-0.167191848,-0.005509496,0.053245693,-0.027617157,-0.110741898,0.101332165,-0.071158066,0.320981983,-1.39368117,0.253312957
-0.934081078,-0.315498531,-0.167191848,-0.005509496,0.053245693,-0.027617157,-0.110741898,0.101332165,-0.071158066,0.320981983,-1.39368117,0.253312957
-0.934081078,-0.315498531,-0.167191848,-0.005509496,0.053245693,-0.027617157,-0.110741898,0.101332165,-0.071158066,0.320981983,-1.39368117,0.253312957
-0.934081078,-0.315498531,-0.167191848,-0.005509496,0.053245693,-0.027617157,-0.110741898,0.101332165,-0.071158066,0.320981983,-1.39368117,0.253312957
-0.934081078,-0.315498531,-0.167191848,-0.005509496,0.053245693,-0.027617157,-0.110741898,0.101332165,-0.071158066,0.320981983,-1.39368117,0.253312957
-0.934081078,-0.315498531,-0.167191848,-0.005509496,0.053245693,-0.027617157,-0.110741898,0.101332165,-0.071158066,0.320981983,-1.39368117,0.253312957
-0.934081078,-0.315498531,-0.167191848,-0.005509496,0.053245693,-0.027617157,-0.110741898,0.101332165,-0.071158066,0.320981983,-1.39368117,0.253312957
-0.934081078,-0.315498531,-0.167191848,-0.005509496,0.053245693,-0.027617157,-0.110741898,0.101332165,-0.071158066,0.320981983,-1.39368117,0.253312957
-0.934081078,-0.315498531,-0.167191848,-0.005509496,0.053245693,-0.027617157,-0.110741898,0.101332165,-0.071158066,0.320981983,-1.39368117,0.253312957
-0.93254441,-0.318310738,-0.170408875,-0.010159433,0.051312238,0.010680318,0.086691178,0.075482532,-0.054405347,0.323946993,-1.390055101,0.253254382
-0.93254441,-0.318310738,-0.170408875,-0.010159433,0.051312238,0.010680318,0.086691178,0.075482532,-0.054405347,0.323946993,-1.390055101,0.253254382
-0.93254441,-0.318310738,-0.170408875,-0.010159433,0.051312238,0.010680318,0.086691178,0.075482532,-0.054405347,0.323946993,-1.390055101,0.253254382
-0.93254441,-0.318310738,-0.170408875,-0.010159433,0.051312238,0.010680318,0.086691178,0.075482532,-0.054405347,0.323946993,-1.390055101,0.253254382
-0.93254441,-0.318310738,-0.170408875,-0.010159433,0.051312238,0.010680318,0.086691178,0.075482532,-0.054405347,0.323946993,-1.390055101,0.253254382
-0.93254441,-0.318310738,-0.170408875,-0.010159433,0.051312238,0.010680318,0.086691178,0.075482532,-0.054405347,0.323946993,-1.390055101,0.253254382
-0.93254441,-0.318310738,-0.170408875,-0.010159433,0.051312238,0.010680318,0.086691178,0.075482532,-0.054405347,0.323946993,-1.390055101,0.253254382
-0.93254441,-0.318310738,-0.170408875,-0.010159433,0.051312238,0.010680318,0.086691178,0.075482532,-0.054405347,0.323946993,-1.390055101,0.253254382
-0.93254441,-0.318310738,-0.170408875,-0.010159433,0.051312238,0.010680318,0.086691178,0.075482532,-0.054405347,0.323946993,-1.390055101,0.253254382
-0.93254441,-0.318310738,-0.170408875,-0.010159433,0.051312238,0.010680318,0.086691178,0.075482532,-0.054405347,0.323946993,-1.390055101,0.253254382
-0.93254441,-0.318310738,-0.170408875,-0.010159433,0.051312238,0.010680318,0.086691178,0.075482532,-0.054405347,0.323946993,-1.390055101,0.253254382
-0.93254441,-0.318310738,-0.170408875,-0.010159433,0.051312238,0.010680318,0.086691178,0.075482532,-0.054405347,0.323946993,-1.390055101,0.253254382
-0.936833918,-0.308960378,-0.16396746,-0.022686541,0.040664405,-0.003465533,-0.212228313,-0.064155281,0.04197488,0.314099734,-1.397528378,0.269253766
-0.936833918,-0.308960378,-0.16396746,-0.022686541,0.040664405,-0.003465533,-0.212228313,-0.064155281,0.04197488,0.314099734,-1.397528378,0.269253766
-0.936833918,-0.308960378,-0.16396746,-0.022686541,0.040664405,-0.003465533,-0.212228313,-0.064155281,0.04197488,0.314099734,-1.397528378,0.269253766
-0.937552691,-0.30685696,-0.163809687,-0.015071154,0.025728256,0.01453501,-0.102290794,-0.064520612,0.080575109,0.311888907,-1.397821861,0.26330986
-0.937552691,-0.30685696,-0.163809687,-0.015071154,0.025728256,0.01453501,-0.102290794,-0.064520612,0.080575109,0.311888907,-1.397821861,0.26330986
-0.937552691,-0.30685696,-0.163809687,-0.015071154,0.025728256,0.01453501,-0.102290794,-0.064520612,0.080575109,0.311888907,-1.397821861,0.26330986
-0.939237595,-0.302081972,-0.163030595,0.017969787,0.012728512,0.007042706,-0.112133436,-0.053020038,0.037667058,0.30687591,-1.398931145,0.259719168
-0.939237595,-0.302081972,-0.163030595,0.017969787,0.012728512,0.007042706,-0.112133436,-0.053020038,0.037667058,0.30687591,-1.398931145,0.259719168
-0.939237595,-0.302081972,-0.163030595,0.017969787,0.012728512,0.007042706,-0.112133436,-0.053020038,0.037667058,0.30687591,-1.398931145,0.259719168
-0.939237595,-0.302081972,-0.163030595,0.017969787,0.012728512,0.007042706,-0.112133436,-0.053020038,0.037667058,0.30687591,-1.398931145,0.259719168
-0.939237595,-0.302081972,-0.163030595,0.017969787,0.012728512,0.007042706,-0.112133436,-0.053020038,0.037667058,0.30687591,-1.398931145,0.259719168
-0.939237595,-0.302081972,-0.163030595,0.017969787,0.012728512,0.007042706,-0.112133436,-0.053020038,0.037667058,0.30687591,-1.398931145,0.259719168
-0.939237595,-0.302081972,-0.163030595,0.017969787,0.012728512,0.007042706,-0.112133436,-0.053020038,0.037667058,0.30687591,-1.398931145,0.259719168
-0.939237595,-0.302081972,-0.163030595,0.017969787,0.012728512,0.007042706,-0.112133436,-0.053020038,0.037667058,0.30687591,-1.398931145,0.259719168
-0.939237595,-0.302081972,-0.163030595,0.017969787,0.012728512,0.007042706,-0.112133436,-0.053020038,0.037667058,0.30687591,-1.398931145,0.259719168
-0.939237595,-0.302081972,-0.163030595,0.017969787,0.012728512,0.007042706,-0.112133436,-0.053020038,0.037667058,0.30687591,-1.398931145,0.259719168
-0.939237595,-0.302081972,-0.163030595,0.017969787,0.012728512,0.007042706,-0.112133436,-0.053020038,0.037667058,0.30687591,-1.398931145,0.259719168
-0.940496504,-0.298938006,-0.161562026,-0.004636288,0.002534956,0.016850531,0.005994706,-0.038113322,0.011912853,0.303579561,-1.400673022,0.257156894
-0.940496504,-0.298938006,-0.161562026,-0.004636288,0.002534956,0.016850531,0.005994706,-0.038113322,0.011912853,0.303579561,-1.400673022,0.257156894
-0.940496504,-0.298938006,-0.161562026,-0.004636288,0.002534956,0.016850531,0.005994706,-0.038113322,0.011912853,0.303579561,-1.400673022,0.257156894
-0.940496504,-0.298938006,-0.161562026,-0.004636288,0.002534956,0.016850531,0.005994706,-0.038113322,0.011912853,0.303579561,-1.400673022,0.257156894
-0.940496504,-0.298938006,-0.161562026,-0.004636288,0.002534956,0.016850531,0.005994706,-0.038113322,0.011912853,0.303579561,-1.400673022,0.257156894
-0.940496504,-0.298938006,-0.161562026,-0.004636288,0.002534956,0.016850531,0.005994706,-0.038113322,0.011912853,0.303579561,-1.400673022,0.257156894
-0.940496504,-0.298938006,-0.161562026,-0.004636288,0.002534956,0.016850531,0.005994706,-0.038113322,0.011912853,0.303579561,-1.400673022,0.257156894
-0.940496504,-0.298938006,-0.161562026,-0.004636288,0.002534956,0.016850531,0.005994706,-0.038113322,0.011912853,0.303579561,-1.400673022,0.257156894
-0.940496504,-0.298938006,-0.161562026,-0.004636288,0.002534956,0.016850531,0.005994706,-0.038113322,0.011912853,0.303579561,-1.400673022,0.257156894
-0.940496504,-0.298938006,-0.161562026,-0.004636288,0.002534956,0.016850531,0.005994706,-0.038113322,0.011912853,0.303579561,-1.400673022,0.257156894
-0.940496504,-0.298938006,-0.161562026,-0.004636288,0.002534956,0.016850531,0.005994706,-0.038113322,0.011912853,0.303579561,-1.400673022,0.257156894
-0.940496504,-0.298938006,-0.161562026,-0.004636288,0.002534956,0.016850531,0.005994706,-0.038113322,0.011912853,0.303579561,-1.400673022,0.257156894
-0.941134453,-0.298117071,-0.15934886,0.017715156,-0.001078248,0.021442592,0.108462617,-0.035611659,0.010346861,0.302719425,-1.403071305,0.259931938
-0.941134453,-0.298117071,-0.15934886,0.017715156,-0.001078248,0.021442592,0.108462617,-0.035611659,0.010346861,0.302719425,-1.403071305,0.259931938
-0.941134453,-0.298117071,-0.15934886,0.017715156,-0.001078248,0.021442592,0.108462617,-0.035611659,0.010346861,0.302719425,-1.403071305,0.259931938
-0.941134453,-0.298117071,-0.15934886,0.017715156,-0.001078248,0.021442592,0.108462617,-0.035611659,0.010346861,0.302719425,-1.403071305,0.259931938
-0.941134453,-0.298117071,-0.15934886,0.017715156,-0.001078248,0.021442592,0.108462617,-0.035611659,0.010346861,0.302719425,-1.403071305,0.259931938
-0.941134453,-0.298117071,-0.15934886,0.017715156,-0.001078248,0.021442592,0.108462617,-0.035611659,0.010346861,0.302719425,-1.403071305,0.259931938
-0.941134453,-0.298117071,-0.15934886,0.017715156,-0.001078248,0.021442592,0.108462617,-0.035611659,0.010346861,0.302719425,-1.403071305,0.259931938
-0.941134453,-0.298117071,-0.15934886,0.017715156,-0.001078248,0.021442592,0.108462617,-0.035611659,0.010346861,0.302719425,-1.403071305,0.259931938
-0.941134453,-0.298117071,-0.15934886,0.017715156,-0.001078248,0.021442592,0.108462617,-0.035611659,0.010346861,0.302719425,-1.403071305,0.259931938
-0.941134453,-0.298117071,-0.15934886,0.017715156,-0.001078248,0.021442592,0.108462617,-0.035611659,0.010346861,0.302719425,-1.403071305,0.259931938
-0.941134453,-0.298117071,-0.15934886,0.017715156,-0.001078248,0.021442592,0.108462617,-0.035611659,0.010346861,0.302719425,-1.403071305,0.259931938
-0.941134453,-0.298117071,-0.15934886,0.017715156,-0.001078248,0.021442592,0.108462617,-0.035611659,0.010346861,0.302719425,-1.403071305,0.259931938
-0.941620886,-0.299189061,-0.15438877,0.021054804,0.013970673,0.001925826,0.217869058,-0.101975717,-0.011565949,0.303842658,-1.40828169,0.266731169
-0.941620886,-0.299189061,-0.15438877,0.021054804,0.013970673,0.001925826,0.217869058,-0.101975717,-0.011565949,0.303842658,-1.40828169,0.266731169
-0.941620886,-0.299189061,-0.15438877,0.021054804,0.013970673,0.001925826,0.217869058,-0.101975717,-0.011565949,0.303842658,-1.40828169,0.266731169
-0.941620886,-0.299189061,-0.15438877,0.021054804,0.013970673,0.001925826,0.217869058,-0.101975717,-0.011565949,0.303842658,-1.40828169,0.266731169
-0.941620886,-0.299189061,-0.15438877,0.021054804,0.013970673,0.001925826,0.217869058,-0.101975717,-0.011565949,0.303842658,-1.40828169,0.266731169
-0.941620886,-0.299189061,-0.15438877,0.021054804,0.013970673,0.001925826,0.217869058,-0.101975717,-0.011565949,0.303842658,-1.40828169,0.266731169
-0.941620886,-0.299189061,-0.15438877,0.021054804,0.013970673,0.001925826,0.217869058,-0.101975717,-0.011565949,0.303842658,-1.40828169,0.266731169
-0.941620886,-0.299189061,-0.15438877,0.021054804,0.013970673,0.001925826,0.217869058,-0.101975717,-0.011565949,0.303842658,-1.40828169,0.266731169
-0.941620886,-0.299189061,-0.15438877,0.021054804,0.013970673,0.001925826,0.217869058,-0.101975717,-0.011565949,0.303842658,-1.40828169,0.266731169
-0.942355871,-0.298790902,-0.150629684,-0.028442085,-0.044944853,0.019666374,-0.064844795,0.011862106,0.041967105,0.303425435,-1.41229344,0.271442806
-0.942355871,-0.298790902,-0.150629684,-0.028442085,-0.044944853,0.019666374,-0.064844795,0.011862106,0.041967105,0.303425435,-1.41229344,0.271442806
-0.942355871,-0.298790902,-0.150629684,-0.028442085,-0.044944853,0.019666374,-0.064844795,0.011862106,0.041967105,0.303425435,-1.41229344,0.271442806
-0.942355871,-0.298790902,-0.150629684,-0.028442085,-0.044944853,0.019666374,-0.064844795,0.011862106,0.041967105,0.303425435,-1.41229344,0.271442806
-0.942355871,-0.298790902,-0.150629684,-0.028442085,-0.044944853,0.019666374,-0.064844795,0.011862106,0.041967105,0.303425435,-1.41229344,0.271442806
-0.942355871,-0.298790902,-0.150629684,-0.028442085,-0.044944853,0.019666374,-0.064844795,0.011862106,0.041967105,0.303425435,-1.41229344,0.271442806
-0.942355871,-0.298790902,-0.150629684,-0.028442085,-0.044944853,0.019666374,-0.064844795,0.011862106,0.041967105,0.303425435,-1.41229344,0.271442806
-0.942355871,-0.298790902,-0.150629684,-0.028442085,-0.044944853,0.019666374,-0.064844795,0.011862106,0.041967105,0.303425435,-1.41229344,0.271442806
-0.942355871,-0.298790902,-0.150629684,-0.028442085,-0.044944853,0.019666374,-0.064844795,0.011862106,0.041967105,0.303425435,-1.41229344,0.271442806
-0.942355871,-0.298790902,-0.150629684,-0.028442085,-0.044944853,0.019666374,-0.064844795,0.011862106,0.041967105,0.303425435,-1.41229344,0.271442806
-0.942355871,-0.298790902,-0.150629684,-0.028442085,-0.044944853,0.019666374,-0.064844795,0.011862106,0.041967105,0.303425435,-1.41229344,0.271442806
-0.942220986,-0.298705339,-0.15163967,0.003528118,0.015486091,0.002319396,-0.00997787,0.006374566,-0.026995931,0.303335767,-1.411226077,0.268872797
-0.942220986,-0.298705339,-0.15163967,0.003528118,0.015486091,0.002319396,-0.00997787,0.006374566,-0.026995931,0.303335767,-1.411226077,0.268872797
-0.942220986,-0.298705339,-0.15163967,0.003528118,0.015486091,0.002319396,-0.00997787,0.006374566,-0.026995931,0.303335767,-1.411226077,0.268872797
-0.942220986,-0.298705339,-0.15163967,0.003528118,0.015486091,0.002319396,-0.00997787,0.006374566,-0.026995931,0.303335767,-1.411226077,0.268872797
-0.942220986,-0.298705339,-0.15163967,0.003528118,0.015486091,0.002319396,-0.00997787,0.006374566,-0.026995931,0.303335767,-1.411226077,0.268872797
-0.942220986,-0.298705339,-0.15163967,0.003528118,0.015486091,0.002319396,-0.00997787,0.006374566,-0.026995931,0.303335767,-1.411226077,0.268872797
-0.942220986,-0.298705339,-0.15163967,0.003528118,0.015486091,0.002319396,-0.00997787,0.006374566,-0.026995931,0.303335767,-1.411226077,0.268872797
-0.942220986,-0.298705339,-0.15163967,0.003528118,0.015486091,0.002319396,-0.00997787,0.006374566,-0.026995931,0.303335767,-1.411226077,0.268872797
-0.942220986,-0.298705339,-0.15163967,0.003528118,0.015486091,0.002319396,-0.00997787,0.006374566,-0.026995931,0.303335767,-1.411226077,0.268872797
-0.942220986,-0.298705339,-0.15163967,0.003528118,0.015486091,0.002319396,-0.00997787,0.006374566,-0.026995931,0.303335767,-1.411226077,0.268872797
-0.942220986,-0.298705339,-0.15163967,0.003528118,0.015486091,0.002319396,-0.00997787,0.006374566,-0.026995931,0.303335767,-1.411226077,0.268872797
-0.942220986,-0.298705339,-0.15163967,0.003528118,0.015486091,0.002319396,-0.00997787,0.006374566,-0.026995931,0.303335767,-1.411226077,0.268872797
-0.942220986,-0.298705339,-0.15163967,0.003528118,0.015486091,0.002319396,-0.00997787,0.006374566,-0.026995931,0.303335767,-1.411226077,0.268872797
-0.942220986,-0.298705339,-0.15163967,0.003528118,0.015486091,0.002319396,-0.00997787,0.006374566,-0.026995931,0.303335767,-1.411226077,0.268872797
-0.942220986,-0.298705339,-0.15163967,0.003528118,0.015486091,0.002319396,-0.00997787,0.006374566,-0.026995931,0.303335767,-1.411226077,0.268872797
-0.942220986,-0.298705339,-0.15163967,0.003528118,0.015486091,0.002319396,-0.00997787,0.006374566,-0.026995931,0.303335767,-1.411226077,0.268872797
-0.942102909,-0.299469173,-0.150864586,-0.003501773,0.011962354,-0.004681587,0.013526818,1.43E-06,0.010993635,0.304136257,-1.412008465,0.268673462
-0.942102909,-0.299469173,-0.150864586,-0.003501773,0.011962354,-0.004681587,0.013526818,1.43E-06,0.010993635,0.304136257,-1.412008465,0.268673462
-0.942102909,-0.299469173,-0.150864586,-0.003501773,0.011962354,-0.004681587,0.013526818,1.43E-06,0.010993635,0.304136257,-1.412008465,0.268673462
-0.942102909,-0.299469173,-0.150864586,-0.003501773,0.011962354,-0.004681587,0.013526818,1.43E-06,0.010993635,0.304136257,-1.412008465,0.268673462
-0.942102909,-0.299469173,-0.150864586,-0.003501773,0.011962354,-0.004681587,0.013526818,1.43E-06,0.010993635,0.304136257,-1.412008465,0.268673462
-0.942102909,-0.299469173,-0.150864586,-0.003501773,0.011962354,-0.004681587,0.013526818,1.43E-06,0.010993635,0.304136257,-1.412008465,0.268673462
-0.942102909,-0.299469173,-0.150864586,-0.003501773,0.011962354,-0.004681587,0.013526818,1.43E-06,0.010993635,0.304136257,-1.412008465,0.268673462
-0.942102909,-0.299469173,-0.150864586,-0.003501773,0.011962354,-0.004681587,0.013526818,1.43E-06,0.010993635,0.304136257,-1.412008465,0.268673462
-0.942081273,-0.299292564,-0.151349336,-0.007047951,0.002584785,0.012068808,0.079379372,0.033647988,0.029721145,0.30395115,-1.411503236,0.271582131
-0.942081273,-0.299292564,-0.151349336,-0.007047951,0.002584785,0.012068808,0.079379372,0.033647988,0.029721145,0.30395115,-1.411503236,0.271582131
-0.942081273,-0.299292564,-0.151349336,-0.007047951,0.002584785,0.012068808,0.079379372,0.033647988,0.029721145,0.30395115,-1.411503236,0.271582131
-0.942081273,-0.299292564,-0.151349336,-0.007047951,0.002584785,0.012068808,0.079379372,0.033647988,0.029721145,0.30395115,-1.411503236,0.271582131
-0.942081273,-0.299292564,-0.151349336,-0.007047951,0.002584785,0.012068808,0.079379372,0.033647988,0.029721145,0.30395115,-1.411503236,0.271582131
-0.942081273,-0.299292564,-0.151349336,-0.007047951,0.002584785,0.012068808,0.079379372,0.033647988,0.029721145,0.30395115,-1.411503236,0.271582131
-0.942316234,-0.298564643,-0.151324764,0.007255614,0.000941336,-0.006937623,-0.003226063,0.007349357,0.008726485,0.303188335,-1.411567705,0.273123468
-0.942316234,-0.298564643,-0.151324764,0.007255614,0.000941336,-0.006937623,-0.003226063,0.007349357,0.008726485,0.303188335,-1.411567705,0.273123468
-0.942316234,-0.298564643,-0.151324764,0.007255614,0.000941336,-0.006937623,-0.003226063,0.007349357,0.008726485,0.303188335,-1.411567705,0.273123468
-0.942507267,-0.296497554,-0.154171735,0.017670572,0.009296119,-0.005372941,-0.069118395,0.022264197,-0.001893135,0.3010232,-1.40865612,0.2726356
-0.942507267,-0.296497554,-0.154171735,0.017670572,0.009296119,-0.005372941,-0.069118395,0.022264197,-0.001893135,0.3010232,-1.40865612,0.2726356
-0.942507267,-0.296497554,-0.154171735,0.017670572,0.009296119,-0.005372941,-0.069118395,0.022264197,-0.001893135,0.3010232,-1.40865612,0.2726356
-0.942507267,-0.296497554,-0.154171735,0.017670572,0.009296119,-0.005372941,-0.069118395,0.022264197,-0.001893135,0.3010232,-1.40865612,0.2726356
-0.942507267,-0.296497554,-0.154171735,0.017670572,0.009296119,-0.005372941,-0.069118395,0.022264197,-0.001893135,0.3010232,-1.40865612,0.2726356
-0.942507267,-0.296497554,-0.154171735,0.017670572,0.009296119,-0.005372941,-0.069118395,0.022264197,-0.001893135,0.3010232,-1.40865612,0.2726356
-0.942507267,-0.296497554,-0.154171735,0.017670572,0.009296119,-0.005372941,-0.069118395,0.022264197,-0.001893135,0.3010232,-1.40865612,0.2726356
-0.942507267,-0.296497554,-0.154171735,0.017670572,0.009296119,-0.005372941,-0.069118395,0.022264197,-0.001893135,0.3010232,-1.40865612,0.2726356
-0.942507267,-0.296497554,-0.154171735,0.017670572,0.009296119,-0.005372941,-0.069118395,0.022264197,-0.001893135,0.3010232,-1.40865612,0.2726356
-0.942287147,-0.296662778,-0.155196473,-0.003469408,0.010956764,0.014099717,-0.022719603,-0.000614246,-0.000618813,0.301196212,-1.407559937,0.270323655
-0.942077219,-0.297143698,-0.155550972,0.001432359,0.010766268,0.009693444,-0.010219391,-0.015840627,-0.005658845,0.301699829,-1.407157863,0.269944345
-0.942077219,-0.297143698,-0.155550972,0.001432359,0.010766268,0.009693444,-0.010219391,-0.015840627,-0.005658845,0.301699829,-1.407157863,0.269944345
-0.942077219,-0.297143698,-0.155550972,0.001432359,0.010766268,0.009693444,-0.010219391,-0.015840627,-0.005658845,0.301699829,-1.407157863,0.269944345
-0.942077219,-0.297143698,-0.155550972,0.001432359,0.010766268,0.009693444,-0.010219391,-0.015840627,-0.005658845,0.301699829,-1.407157863,0.269944345
-0.942077219,-0.297143698,-0.155550972,0.001432359,0.010766268,0.009693444,-0.010219391,-0.015840627,-0.005658845,0.301699829,-1.407157863,0.269944345
-0.942077219,-0.297143698,-0.155550972,0.001432359,0.010766268,0.009693444,-0.010219391,-0.015840627,-0.005658845,0.301699829,-1.407157863,0.269944345
-0.942077219,-0.297143698,-0.155550972,0.001432359,0.010766268,0.009693444,-0.010219391,-0.015840627,-0.005658845,0.301699829,-1.407157863,0.269944345
-0.942077219,-0.297143698,-0.155550972,0.001432359,0.010766268,0.009693444,-0.010219391,-0.015840627,-0.005658845,0.301699829,-1.407157863,0.269944345
-0.942340553,-0.296677709,-0.154842839,0.001757085,0.02552864,0.009488523,-0.003635844,-0.004080205,0.005401582,0.30121183,-1.407934408,0.269264397
-0.942340553,-0.296677709,-0.154842839,0.001757085,0.02552864,0.009488523,-0.003635844,-0.004080205,0.005401582,0.30121183,-1.407934408,0.269264397
-0.942340553,-0.296677709,-0.154842839,0.001757085,0.02552864,0.009488523,-0.003635844,-0.004080205,0.005401582,0.30121183,-1.407934408,0.269264397
-0.942340553,-0.296677709,-0.154842839,0.001757085,0.02552864,0.009488523,-0.003635844,-0.004080205,0.005401582,0.30121183,-1.407934408,0.269264397
-0.942340553,-0.296677709,-0.154842839,0.001757085,0.02552864,0.009488523,-0.003635844,-0.004080205,0.005401582,0.30121183,-1.407934408,0.269264397
-0.942340553,-0.296677709,-0.154842839,0.001757085,0.02552864,0.009488523,-0.003635844,-0.004080205,0.005401582,0.30121183,-1.407934408,0.269264397
-0.942340553,-0.296677709,-0.154842839,0.001757085,0.02552864,0.009488523,-0.003635844,-0.004080205,0.005401582,0.30121183,-1.407934408,0.269264397
-0.942340553,-0.296677709,-0.154842839,0.001757085,0.02552864,0.009488523,-0.003635844,-0.004080205,0.005401582,0.30121183,-1.407934408,0.269264397
-0.942340553,-0.296677709,-0.154842839,0.001757085,0.02552864,0.009488523,-0.003635844,-0.004080205,0.005401582,0.30121183,-1.407934408,0.269264397
-0.942340553,-0.296677709,-0.154842839,0.001757085,0.02552864,0.009488523,-0.003635844,-0.004080205,0.005401582,0.30121183,-1.407934408,0.269264397
-0.942340553,-0.296677709,-0.154842839,0.001757085,0.02552864,0.009488523,-0.003635844,-0.004080205,0.005401582,0.30121183,-1.407934408,0.269264397
-0.942619562,-0.296446443,-0.153583109,-0.006295383,0.019712627,0.016209304,0.057657551,0.005143557,-0.003367621,0.300969685,-1.40928334,0.270676704
-0.942619562,-0.296446443,-0.153583109,-0.006295383,0.019712627,0.016209304,0.057657551,0.005143557,-0.003367621,0.300969685,-1.40928334,0.270676704
-0.942619562,-0.296446443,-0.153583109,-0.006295383,0.019712627,0.016209304,0.057657551,0.005143557,-0.003367621,0.300969685,-1.40928334,0.270676704
-0.942619562,-0.296446443,-0.153583109,-0.006295383,0.019712627,0.016209304,0.057657551,0.005143557,-0.003367621,0.300969685,-1.40928334,0.270676704
-0.942619562,-0.296446443,-0.153583109,-0.006295383,0.019712627,0.016209304,0.057657551,0.005143557,-0.003367621,0.300969685,-1.40928334,0.270676704
-0.942619562,-0.296446443,-0.153583109,-0.006295383,0.019712627,0.016209304,0.057657551,0.005143557,-0.003367621,0.300969685,-1.40928334,0.270676704
-0.942619562,-0.296446443,-0.153583109,-0.006295383,0.019712627,0.016209304,0.057657551,0.005143557,-0.003367621,0.300969685,-1.40928334,0.270676704
-0.942619562,-0.296446443,-0.153583109,-0.006295383,0.019712627,0.016209304,0.057657551,0.005143557,-0.003367621,0.300969685,-1.40928334,0.270676704
-0.942619562,-0.296446443,-0.153583109,-0.006295383,0.019712627,0.016209304,0.057657551,0.005143557,-0.003367621,0.300969685,-1.40928334,0.270676704
-0.942619562,-0.296446443,-0.153583109,-0.006295383,0.019712627,0.016209304,0.057657551,0.005143557,-0.003367621,0.300969685,-1.40928334,0.270676704
-0.942619562,-0.296446443,-0.153583109,-0.006295383,0.019712627,0.016209304,0.057657551,0.005143557,-0.003367621,0.300969685,-1.40928334,0.270676704
-0.942619562,-0.296446443,-0.153583109,-0.006295383,0.019712627,0.016209304,0.057657551,0.005143557,-0.003367621,0.300969685,-1.40928334,0.270676704
-0.942619562,-0.296446443,-0.153583109,-0.006295383,0.019712627,0.016209304,0.057657551,0.005143557,-0.003367621,0.300969685,-1.40928334,0.270676704
-0.942619562,-0.296446443,-0.153583109,-0.006295383,0.019712627,0.016209304,0.057657551,0.005143557,-0.003367621,0.300969685,-1.40928334,0.270676704
-0.942623258,-0.296592981,-0.15327704,-0.000905454,0.009437382,0.02539438,0.11027202,0.038010295,-0.006211664,0.301123117,-1.409600283,0.273766198
-0.942623258,-0.296592981,-0.15327704,-0.000905454,0.009437382,0.02539438,0.11027202,0.038010295,-0.006211664,0.301123117,-1.409600283,0.273766198
-0.942623258,-0.296592981,-0.15327704,-0.000905454,0.009437382,0.02539438,0.11027202,0.038010295,-0.006211664,0.301123117,-1.409600283,0.273766198
-0.942623258,-0.296592981,-0.15327704,-0.000905454,0.009437382,0.02539438,0.11027202,0.038010295,-0.006211664,0.301123117,-1.409600283,0.273766198
-0.942623258,-0.296592981,-0.15327704,-0.000905454,0.009437382,0.02539438,0.11027202,0.038010295,-0.006211664,0.301123117,-1.409600283,0.273766198
-0.942623258,-0.296592981,-0.15327704,-0.000905454,0.009437382,0.02539438,0.11027202,0.038010295,-0.006211664,0.301123117,-1.409600283,0.273766198
-0.942623258,-0.296592981,-0.15327704,-0.000905454,0.009437382,0.02539438,0.11027202,0.038010295,-0.006211664,0.301123117,-1.409600283,0.273766198
-0.942623258,-0.296592981,-0.15327704,-0.000905454,0.009437382,0.02539438,0.11027202,0.038010295,-0.006211664,0.301123117,-1.409600283,0.273766198
-0.942623258,-0.296592981,-0.15327704,-0.000905454,0.009437382,0.02539438,0.11027202,0.038010295,-0.006211664,0.301123117,-1.409600283,0.273766198
-0.942623258,-0.296592981,-0.15327704,-0.000905454,0.009437382,0.02539438,0.11027202,0.038010295,-0.006211664,0.301123117,-1.409600283,0.273766198
-0.942623258,-0.296592981,-0.15327704,-0.000905454,0.009437382,0.02539438,0.11027202,0.038010295,-0.006211664,0.301123117,-1.409600283,0.273766198
-0.94275552,-0.296687871,-0.152276874,0.009053051,-0.004750103,-0.003651142,0.135940149,0.010152611,0.000151906,0.301222493,-1.410656258,0.279346864
-0.94275552,-0.296687871,-0.152276874,0.009053051,-0.004750103,-0.003651142,0.135940149,0.010152611,0.000151906,0.301222493,-1.410656258,0.279346864
-0.94275552,-0.296687871,-0.152276874,0.009053051,-0.004750103,-0.003651142,0.135940149,0.010152611,0.000151906,0.301222493,-1.410656258,0.279346864
-0.94275552,-0.296687871,-0.152276874,0.009053051,-0.004750103,-0.003651142,0.135940149,0.010152611,0.000151906,0.301222493,-1.410656258,0.279346864
-0.94275552,-0.296687871,-0.152276874,0.009053051,-0.004750103,-0.003651142,0.135940149,0.010152611,0.000151906,0.301222493,-1.410656258,0.279346864
-0.94275552,-0.296687871,-0.152276874,0.009053051,-0.004750103,-0.003651142,0.135940149,0.010152611,0.000151906,0.301222493,-1.410656258,0.279346864
-0.94275552,-0.296687871,-0.152276874,0.009053051,-0.004750103,-0.003651142,0.135940149,0.010152611,0.000151906,0.301222493,-1.410656258,0.279346864
-0.942729115,-0.297320366,-0.151202902,0.001443267,-0.018506557,-0.000406981,0.054496903,0.035449445,-0.019841455,0.301884877,-1.411762295,0.283121112
-0.942729115,-0.297320366,-0.151202902,0.001443267,-0.018506557,-0.000406981,0.054496903,0.035449445,-0.019841455,0.301884877,-1.411762295,0.283121112
-0.942729115,-0.297320366,-0.151202902,0.001443267,-0.018506557,-0.000406981,0.054496903,0.035449445,-0.019841455,0.301884877,-1.411762295,0.283121112
-0.942729115,-0.297320366,-0.151202902,0.001443267,-0.018506557,-0.000406981,0.054496903,0.035449445,-0.019841455,0.301884877,-1.411762295,0.283121112
-0.942729115,-0.297320366,-0.151202902,0.001443267,-0.018506557,-0.000406981,0.054496903,0.035449445,-0.019841455,0.301884877,-1.411762295,0.283121112
-0.942729115,-0.297320366,-0.151202902,0.001443267,-0.018506557,-0.000406981,0.054496903,0.035449445,-0.019841455,0.301884877,-1.411762295,0.283121112
-0.942729115,-0.297320366,-0.151202902,0.001443267,-0.018506557,-0.000406981,0.054496903,0.035449445,-0.019841455,0.301884877,-1.411762295,0.283121112
-0.942729115,-0.297320366,-0.151202902,0.001443267,-0.018506557,-0.000406981,0.054496903,0.035449445,-0.019841455,0.301884877,-1.411762295,0.283121112
-0.942729115,-0.297320366,-0.151202902,0.001443267,-0.018506557,-0.000406981,0.054496903,0.035449445,-0.019841455,0.301884877,-1.411762295,0.283121112
-0.942729115,-0.297320366,-0.151202902,0.001443267,-0.018506557,-0.000406981,0.054496903,0.035449445,-0.019841455,0.301884877,-1.411762295,0.283121112
-0.942729115,-0.297320366,-0.151202902,0.001443267,-0.018506557,-0.000406981,0.054496903,0.035449445,-0.019841455,0.301884877,-1.411762295,0.283121112
-0.942729115,-0.297320366,-0.151202902,0.001443267,-0.018506557,-0.000406981,0.054496903,0.035449445,-0.019841455,0.301884877,-1.411762295,0.283121112
-0.942729115,-0.297320366,-0.151202902,0.001443267,-0.018506557,-0.000406981,0.054496903,0.035449445,-0.019841455,0.301884877,-1.411762295,0.283121112
-0.942048728,-0.298728615,-0.152660251,0.007492125,-0.022896618,-0.004763424,-0.061241351,0.00461107,-0.063887209,0.303360153,-1.410141582,0.28236412
-0.942048728,-0.298728615,-0.152660251,0.007492125,-0.022896618,-0.004763424,-0.061241351,0.00461107,-0.063887209,0.303360153,-1.410141582,0.28236412
-0.942048728,-0.298728615,-0.152660251,0.007492125,-0.022896618,-0.004763424,-0.061241351,0.00461107,-0.063887209,0.303360153,-1.410141582,0.28236412
-0.942048728,-0.298728615,-0.152660251,0.007492125,-0.022896618,-0.004763424,-0.061241351,0.00461107,-0.063887209,0.303360153,-1.410141582,0.28236412
-0.942048728,-0.298728615,-0.152660251,0.007492125,-0.022896618,-0.004763424,-0.061241351,0.00461107,-0.063887209,0.303360153,-1.410141582,0.28236412
-0.942048728,-0.298728615,-0.152660251,0.007492125,-0.022896618,-0.004763424,-0.061241351,0.00461107,-0.063887209,0.303360153,-1.410141582,0.28236412
-0.942048728,-0.298728615,-0.152660251,0.007492125,-0.022896618,-0.004763424,-0.061241351,0.00461107,-0.063887209,0.303360153,-1.410141582,0.28236412
-0.942048728,-0.298728615,-0.152660251,0.007492125,-0.022896618,-0.004763424,-0.061241351,0.00461107,-0.063887209,0.303360153,-1.410141582,0.28236412
-0.942048728,-0.298728615,-0.152660251,0.007492125,-0.022896618,-0.004763424,-0.061241351,0.00461107,-0.063887209,0.303360153,-1.410141582,0.28236412
-0.942048728,-0.298728615,-0.152660251,0.007492125,-0.022896618,-0.004763424,-0.061241351,0.00461107,-0.063887209,0.303360153,-1.410141582,0.28236412
-0.942048728,-0.298728615,-0.152660251,0.007492125,-0.022896618,-0.004763424,-0.061241351,0.00461107,-0.063887209,0.303360153,-1.410141582,0.28236412
-0.940568149,-0.302493393,-0.154366523,0.002958953,-0.01695013,0.01398772,-0.332874209,-0.013217147,-0.02325483,0.307307524,-1.408126018,0.270003296
-0.940568149,-0.302493393,-0.154366523,0.002958953,-0.01695013,0.01398772,-0.332874209,-0.013217147,-0.02325483,0.307307524,-1.408126018,0.270003296
-0.940568149,-0.302493393,-0.154366523,0.002958953,-0.01695013,0.01398772,-0.332874209,-0.013217147,-0.02325483,0.307307524,-1.408126018,0.270003296
-0.940568149,-0.302493393,-0.154366523,0.002958953,-0.01695013,0.01398772,-0.332874209,-0.013217147,-0.02325483,0.307307524,-1.408126018,0.270003296
-0.940568149,-0.302493393,-0.154366523,0.002958953,-0.01695013,0.01398772,-0.332874209,-0.013217147,-0.02325483,0.307307524,-1.408126018,0.270003296
-0.939984739,-0.302550912,-0.157771036,0.010767817,0.024092525,-0.000857234,-0.184269637,-0.001486117,-0.086550608,0.307367871,-1.404502103,0.256559226
-0.939984739,-0.302550912,-0.157771036,0.010767817,0.024092525,-0.000857234,-0.184269637,-0.001486117,-0.086550608,0.307367871,-1.404502103,0.256559226
-0.939984739,-0.302550912,-0.157771036,0.010767817,0.024092525,-0.000857234,-0.184269637,-0.001486117,-0.086550608,0.307367871,-1.404502103,0.256559226
-0.939984739,-0.302550912,-0.157771036,0.010767817,0.024092525,-0.000857234,-0.184269637,-0.001486117,-0.086550608,0.307367871,-1.404502103,0.256559226
-0.939984739,-0.302550912,-0.157771036,0.010767817,0.024092525,-0.000857234,-0.184269637,-0.001486117,-0.086550608,0.307367871,-1.404502103,0.256559226
-0.939984739,-0.302550912,-0.157771036,0.010767817,0.024092525,-0.000857234,-0.184269637,-0.001486117,-0.086550608,0.307367871,-1.404502103,0.256559226
-0.939984739,-0.302550912,-0.157771036,0.010767817,0.024092525,-0.000857234,-0.184269637,-0.001486117,-0.086550608,0.307367871,-1.404502103,0.256559226
-0.939984739,-0.302550912,-0.157771036,0.010767817,0.024092525,-0.000857234,-0.184269637,-0.001486117,-0.086550608,0.307367871,-1.404502103,0.256559226
-0.939984739,-0.302550912,-0.157771036,0.010767817,0.024092525,-0.000857234,-0.184269637,-0.001486117,-0.086550608,0.307367871,-1.404502103,0.256559226
-0.939984739,-0.302550912,-0.157771036,0.010767817,0.024092525,-0.000857234,-0.184269637,-0.001486117,-0.086550608,0.307367871,-1.404502103,0.256559226
-0.939984739,-0.302550912,-0.157771036,0.010767817,0.024092525,-0.000857234,-0.184269637,-0.001486117,-0.086550608,0.307367871,-1.404502103,0.256559226
-0.939984739,-0.302550912,-0.157771036,0.010767817,0.024092525,-0.000857234,-0.184269637,-0.001486117,-0.086550608,0.307367871,-1.404502103,0.256559226
-0.939026952,-0.305520564,-0.157750636,-0.006409645,0.007347912,0.008765578,-0.008358295,0.007618916,-0.064372435,0.310485099,-1.404356742,0.253974808
-0.939026952,-0.305520564,-0.157750636,-0.006409645,0.007347912,0.008765578,-0.008358295,0.007618916,-0.064372435,0.310485099,-1.404356742,0.253974808
-0.939026952,-0.305520564,-0.157750636,-0.006409645,0.007347912,0.008765578,-0.008358295,0.007618916,-0.064372435,0.310485099,-1.404356742,0.253974808
-0.939026952,-0.305520564,-0.157750636,-0.006409645,0.007347912,0.008765578,-0.008358295,0.007618916,-0.064372435,0.310485099,-1.404356742,0.253974808
-0.939026952,-0.305520564,-0.157750636,-0.006409645,0.007347912,0.008765578,-0.008358295,0.007618916,-0.064372435,0.310485099,-1.404356742,0.253974808
-0.939026952,-0.305520564,-0.157750636,-0.006409645,0.007347912,0.008765578,-0.008358295,0.007618916,-0.064372435,0.310485099,-1.404356742,0.253974808
-0.93846786,-0.306396097,-0.159371763,-0.009730935,-0.026230991,0.022471964,-0.121173486,0.03181152,-0.03287667,0.311404731,-1.402579923,0.250163018
-0.93846786,-0.306396097,-0.159371763,-0.009730935,-0.026230991,0.022471964,-0.121173486,0.03181152,-0.03287667,0.311404731,-1.402579923,0.250163018
-0.93846786,-0.306396097,-0.159371763,-0.009730935,-0.026230991,0.022471964,-0.121173486,0.03181152,-0.03287667,0.311404731,-1.402579923,0.250163018
-0.93846786,-0.306396097,-0.159371763,-0.009730935,-0.026230991,0.022471964,-0.121173486,0.03181152,-0.03287667,0.311404731,-1.402579923,0.250163018
-0.93846786,-0.306396097,-0.159371763,-0.009730935,-0.026230991,0.022471964,-0.121173486,0.03181152,-0.03287667,0.311404731,-1.402579923,0.250163018
-0.93846786,-0.306396097,-0.159371763,-0.009730935,-0.026230991,0.022471964,-0.121173486,0.03181152,-0.03287667,0.311404731,-1.402579923,0.250163018
-0.93846786,-0.306396097,-0.159371763,-0.009730935,-0.026230991,0.022471964,-0.121173486,0.03181152,-0.03287667,0.311404731,-1.402579923,0.250163018
-0.93846786,-0.306396097,-0.159371763,-0.009730935,-0.026230991,0.022471964,-0.121173486,0.03181152,-0.03287667,0.311404731,-1.402579923,0.250163018
-0.93846786,-0.306396097,-0.159371763,-0.009730935,-0.026230991,0.022471964,-0.121173486,0.03181152,-0.03287667,0.311404731,-1.402579923,0.250163018
-0.93846786,-0.306396097,-0.159371763,-0.009730935,-0.026230991,0.022471964,-0.121173486,0.03181152,-0.03287667,0.311404731,-1.402579923,0.250163018
-0.93846786,-0.306396097,-0.159371763,-0.009730935,-0.026230991,0.022471964,-0.121173486,0.03181152,-0.03287667,0.311404731,-1.402579923,0.250163018
-0.93846786,-0.306396097,-0.159371763,-0.009730935,-0.026230991,0.022471964,-0.121173486,0.03181152,-0.03287667,0.311404731,-1.402579923,0.250163018
-0.937986672,-0.307036161,-0.160964951,-0.000217497,-0.006212205,0.003038347,-0.008972766,0.03011902,-0.060364969,0.312077203,-1.400844854,0.24694466
-0.937986672,-0.307036161,-0.160964951,-0.000217497,-0.006212205,0.003038347,-0.008972766,0.03011902,-0.060364969,0.312077203,-1.400844854,0.24694466
-0.937986672,-0.307036161,-0.160964951,-0.000217497,-0.006212205,0.003038347,-0.008972766,0.03011902,-0.060364969,0.312077203,-1.400844854,0.24694466
-0.937986672,-0.307036161,-0.160964951,-0.000217497,-0.006212205,0.003038347,-0.008972766,0.03011902,-0.060364969,0.312077203,-1.400844854,0.24694466
-0.937986672,-0.307036161,-0.160964951,-0.000217497,-0.006212205,0.003038347,-0.008972766,0.03011902,-0.060364969,0.312077203,-1.400844854,0.24694466
-0.937986672,-0.307036161,-0.160964951,-0.000217497,-0.006212205,0.003038347,-0.008972766,0.03011902,-0.060364969,0.312077203,-1.400844854,0.24694466
-0.937986672,-0.307036161,-0.160964951,-0.000217497,-0.006212205,0.003038347,-0.008972766,0.03011902,-0.060364969,0.312077203,-1.400844854,0.24694466
-0.937986672,-0.307036161,-0.160964951,-0.000217497,-0.006212205,0.003038347,-0.008972766,0.03011902,-0.060364969,0.312077203,-1.400844854,0.24694466
-0.937986672,-0.307036161,-0.160964951,-0.000217497,-0.006212205,0.003038347,-0.008972766,0.03011902,-0.060364969,0.312077203,-1.400844854,0.24694466
-0.937986672,-0.307036161,-0.160964951,-0.000217497,-0.006212205,0.003038347,-0.008972766,0.03011902,-0.060364969,0.312077203,-1.400844854,0.24694466
-0.937986672,-0.307036161,-0.160964951,-0.000217497,-0.006212205,0.003038347,-0.008972766,0.03011902,-0.060364969,0.312077203,-1.400844854,0.24694466
-0.937287986,-0.309066981,-0.161147758,-0.033950925,-0.013412833,0.021515965,-0.033362273,0.06356819,-0.006193128,0.314211811,-1.400531151,0.247248572
-0.937287986,-0.309066981,-0.161147758,-0.033950925,-0.013412833,0.021515965,-0.033362273,0.06356819,-0.006193128,0.314211811,-1.400531151,0.247248572
-0.937287986,-0.309066981,-0.161147758,-0.033950925,-0.013412833,0.021515965,-0.033362273,0.06356819,-0.006193128,0.314211811,-1.400531151,0.247248572
-0.937287986,-0.309066981,-0.161147758,-0.033950925,-0.013412833,0.021515965,-0.033362273,0.06356819,-0.006193128,0.314211811,-1.400531151,0.247248572
-0.937287986,-0.309066981,-0.161147758,-0.033950925,-0.013412833,0.021515965,-0.033362273,0.06356819,-0.006193128,0.314211811,-1.400531151,0.247248572
-0.937287986,-0.309066981,-0.161147758,-0.033950925,-0.013412833,0.021515965,-0.033362273,0.06356819,-0.006193128,0.314211811,-1.400531151,0.247248572
-0.937287986,-0.309066981,-0.161147758,-0.033950925,-0.013412833,0.021515965,-0.033362273,0.06356819,-0.006193128,0.314211811,-1.400531151,0.247248572
-0.937287986,-0.309066981,-0.161147758,-0.033950925,-0.013412833,0.021515965,-0.033362273,0.06356819,-0.006193128,0.314211811,-1.400531151,0.247248572
-0.937012672,-0.307823747,-0.165080428,-0.004013836,-0.013206482,0.000592053,-0.125467956,0.083526723,0.020420639,0.312904873,-1.396408495,0.242595866
-0.937012672,-0.307823747,-0.165080428,-0.004013836,-0.013206482,0.000592053,-0.125467956,0.083526723,0.020420639,0.312904873,-1.396408495,0.242595866
-0.937012672,-0.307823747,-0.165080428,-0.004013836,-0.013206482,0.000592053,-0.125467956,0.083526723,0.020420639,0.312904873,-1.396408495,0.242595866
-0.936643004,-0.307891577,-0.167039856,0.011256754,0.035277486,-0.027813494,0.127543747,0.067311265,-0.0066497,0.312976152,-1.394312842,0.242963355
-0.936643004,-0.307891577,-0.167039856,0.011256754,0.035277486,-0.027813494,0.127543747,0.067311265,-0.0066497,0.312976152,-1.394312842,0.242963355
-0.936643004,-0.307891577,-0.167039856,0.011256754,0.035277486,-0.027813494,0.127543747,0.067311265,-0.0066497,0.312976152,-1.394312842,0.242963355
-0.936643004,-0.307891577,-0.167039856,0.011256754,0.035277486,-0.027813494,0.127543747,0.067311265,-0.0066497,0.312976152,-1.394312842,0.242963355
-0.936643004,-0.307891577,-0.167039856,0.011256754,0.035277486,-0.027813494,0.127543747,0.067311265,-0.0066497,0.312976152,-1.394312842,0.242963355
-0.936643004,-0.307891577,-0.167039856,0.011256754,0.035277486,-0.027813494,0.127543747,0.067311265,-0.0066497,0.312976152,-1.394312842,0.242963355
-0.936643004,-0.307891577,-0.167039856,0.011256754,0.035277486,-0.027813494,0.127543747,0.067311265,-0.0066497,0.312976152,-1.394312842,0.242963355
-0.936643004,-0.307891577,-0.167039856,0.011256754,0.035277486,-0.027813494,0.127543747,0.067311265,-0.0066497,0.312976152,-1.394312842,0.242963355
-0.936643004,-0.307891577,-0.167039856,0.011256754,0.035277486,-0.027813494,0.127543747,0.067311265,-0.0066497,0.312976152,-1.394312842,0.242963355
-0.936643004,-0.307891577,-0.167039856,0.011256754,0.035277486,-0.027813494,0.127543747,0.067311265,-0.0066497,0.312976152,-1.394312842,0.242963355
-0.936643004,-0.307891577,-0.167039856,0.011256754,0.035277486,-0.027813494,0.127543747,0.067311265,-0.0066497,0.312976152,-1.394312842,0.242963355
-0.936643004,-0.307891577,-0.167039856,0.011256754,0.035277486,-0.027813494,0.127543747,0.067311265,-0.0066497,0.312976152,-1.394312842,0.242963355
-0.936128914,-0.30946964,-0.16700609,-0.001418769,0.002492726,-0.022598028,0.185647383,0.086129889,0.007234583,0.314635254,-1.394252885,0.250250167
-0.936128914,-0.30946964,-0.16700609,-0.001418769,0.002492726,-0.022598028,0.185647383,0.086129889,0.007234583,0.314635254,-1.394252885,0.250250167
-0.936128914,-0.30946964,-0.16700609,-0.001418769,0.002492726,-0.022598028,0.185647383,0.086129889,0.007234583,0.314635254,-1.394252885,0.250250167
-0.935458302,-0.309960574,-0.16982995,0.000565648,-0.006324232,-0.030455351,-0.019308973,0.079798624,-0.04132821,0.315151568,-1.391205035,0.253635894
-0.935458302,-0.309960574,-0.16982995,0.000565648,-0.006324232,-0.030455351,-0.019308973,0.079798624,-0.04132821,0.315151568,-1.391205035,0.253635894
-0.935458302,-0.309960574,-0.16982995,0.000565648,-0.006324232,-0.030455351,-0.019308973,0.079798624,-0.04132821,0.315151568,-1.391205035,0.253635894
-0.935458302,-0.309960574,-0.16982995,0.000565648,-0.006324232,-0.030455351,-0.019308973,0.079798624,-0.04132821,0.315151568,-1.391205035,0.253635894
-0.935458302,-0.309960574,-0.16982995,0.000565648,-0.006324232,-0.030455351,-0.019308973,0.079798624,-0.04132821,0.315151568,-1.391205035,0.253635894
-0.935458302,-0.309960574,-0.16982995,0.000565648,-0.006324232,-0.030455351,-0.019308973,0.079798624,-0.04132821,0.315151568,-1.391205035,0.253635894
-0.935458302,-0.309960574,-0.16982995,0.000565648,-0.006324232,-0.030455351,-0.019308973,0.079798624,-0.04132821,0.315151568,-1.391205035,0.253635894
-0.935458302,-0.309960574,-0.16982995,0.000565648,-0.006324232,-0.030455351,-0.019308973,0.079798624,-0.04132821,0.315151568,-1.391205035,0.253635894
-0.935458302,-0.309960574,-0.16982995,0.000565648,-0.006324232,-0.030455351,-0.019308973,0.079798624,-0.04132821,0.315151568,-1.391205035,0.253635894
-0.935458302,-0.309960574,-0.16982995,0.000565648,-0.006324232,-0.030455351,-0.019308973,0.079798624,-0.04132821,0.315151568,-1.391205035,0.253635894
-0.935458302,-0.309960574,-0.16982995,0.000565648,-0.006324232,-0.030455351,-0.019308973,0.079798624,-0.04132821,0.315151568,-1.391205035,0.253635894
-0.935458302,-0.309960574,-0.16982995,0.000565648,-0.006324232,-0.030455351,-0.019308973,0.079798624,-0.04132821,0.315151568,-1.391205035,0.253635894
-0.934185982,-0.313306212,-0.170691594,0.047038317,0.061398298,0.021919847,0.298423797,0.012233617,-0.047608428,0.318672538,-1.390072979,0.2594879
-0.934185982,-0.313306212,-0.170691594,0.047038317,0.061398298,0.021919847,0.298423797,0.012233617,-0.047608428,0.318672538,-1.390072979,0.2594879
-0.934185982,-0.313306212,-0.170691594,0.047038317,0.061398298,0.021919847,0.298423797,0.012233617,-0.047608428,0.318672538,-1.390072979,0.2594879
-0.934185982,-0.313306212,-0.170691594,0.047038317,0.061398298,0.021919847,0.298423797,0.012233617,-0.047608428,0.318672538,-1.390072979,0.2594879
-0.934185982,-0.313306212,-0.170691594,0.047038317,0.061398298,0.021919847,0.298423797,0.012233617,-0.047608428,0.318672538,-1.390072979,0.2594879
-0.934185982,-0.313306212,-0.170691594,0.047038317,0.061398298,0.021919847,0.298423797,0.012233617,-0.047608428,0.318672538,-1.390072979,0.2594879
-0.934185982,-0.313306212,-0.170691594,0.047038317,0.061398298,0.021919847,0.298423797,0.012233617,-0.047608428,0.318672538,-1.390072979,0.2594879
-0.934185982,-0.313306212,-0.170691594,0.047038317,0.061398298,0.021919847,0.298423797,0.012233617,-0.047608428,0.318672538,-1.390072979,0.2594879
-0.934185982,-0.313306212,-0.170691594,0.047038317,0.061398298,0.021919847,0.298423797,0.012233617,-0.047608428,0.318672538,-1.390072979,0.2594879
-0.934185982,-0.313306212,-0.170691594,0.047038317,0.061398298,0.021919847,0.298423797,0.012233617,-0.047608428,0.318672538,-1.390072979,0.2594879
-0.934185982,-0.313306212,-0.170691594,0.047038317,0.061398298,0.021919847,0.298423797,0.012233617,-0.047608428,0.318672538,-1.390072979,0.2594879
-0.934185982,-0.313306212,-0.170691594,0.047038317,0.061398298,0.021919847,0.298423797,0.012233617,-0.047608428,0.318672538,-1.390072979,0.2594879
-0.932259798,-0.317242563,-0.173921898,0.030875802,-0.034442514,-0.013485312,0.032713495,0.053788241,-0.104040012,0.322820437,-1.386357116,0.264314803
-0.932259798,-0.317242563,-0.173921898,0.030875802,-0.034442514,-0.013485312,0.032713495,0.053788241,-0.104040012,0.322820437,-1.386357116,0.264314803
-0.932259798,-0.317242563,-0.173921898,0.030875802,-0.034442514,-0.013485312,0.032713495,0.053788241,-0.104040012,0.322820437,-1.386357116,0.264314803
-0.932259798,-0.317242563,-0.173921898,0.030875802,-0.034442514,-0.013485312,0.032713495,0.053788241,-0.104040012,0.322820437,-1.386357116,0.264314803
-0.932259798,-0.317242563,-0.173921898,0.030875802,-0.034442514,-0.013485312,0.032713495,0.053788241,-0.104040012,0.322820437,-1.386357116,0.264314803
-0.932259798,-0.317242563,-0.173921898,0.030875802,-0.034442514,-0.013485312,0.032713495,0.053788241,-0.104040012,0.322820437,-1.386357116,0.264314803
-0.932259798,-0.317242563,-0.173921898,0.030875802,-0.034442514,-0.013485312,0.032713495,0.053788241,-0.104040012,0.322820437,-1.386357116,0.264314803
-0.932259798,-0.317242563,-0.173921898,0.030875802,-0.034442514,-0.013485312,0.032713495,0.053788241,-0.104040012,0.322820437,-1.386357116,0.264314803
-0.932259798,-0.317242563,-0.173921898,0.030875802,-0.034442514,-0.013485312,0.032713495,0.053788241,-0.104040012,0.322820437,-1.386357116,0.264314803
-0.932259798,-0.317242563,-0.173921898,0.030875802,-0.034442514,-0.013485312,0.032713495,0.053788241,-0.104040012,0.322820437,-1.386357116,0.264314803
-0.932259798,-0.317242563,-0.173921898,0.030875802,-0.034442514,-0.013485312,0.032713495,0.053788241,-0.104040012,0.322820437,-1.386357116,0.264314803
-0.932259798,-0.317242563,-0.173921898,0.030875802,-0.034442514,-0.013485312,0.032713495,0.053788241,-0.104040012,0.322820437,-1.386357116,0.264314803
-0.932259798,-0.317242563,-0.173921898,0.030875802,-0.034442514,-0.013485312,0.032713495,0.053788241,-0.104040012,0.322820437,-1.386357116,0.264314803
-0.931973457,-0.31728664,-0.175369859,-0.002217114,-0.054173917,-0.012662768,-0.147650331,0.063420951,-0.046308696,0.32286692,-1.384800777,0.262669574
-0.931973457,-0.31728664,-0.175369859,-0.002217114,-0.054173917,-0.012662768,-0.147650331,0.063420951,-0.046308696,0.32286692,-1.384800777,0.262669574
-0.931973457,-0.31728664,-0.175369859,-0.002217114,-0.054173917,-0.012662768,-0.147650331,0.063420951,-0.046308696,0.32286692,-1.384800777,0.262669574
-0.931973457,-0.31728664,-0.175369859,-0.002217114,-0.054173917,-0.012662768,-0.147650331,0.063420951,-0.046308696,0.32286692,-1.384800777,0.262669574
-0.931973457,-0.31728664,-0.175369859,-0.002217114,-0.054173917,-0.012662768,-0.147650331,0.063420951,-0.046308696,0.32286692,-1.384800777,0.262669574
-0.931973457,-0.31728664,-0.175369859,-0.002217114,-0.054173917,-0.012662768,-0.147650331,0.063420951,-0.046308696,0.32286692,-1.384800777,0.262669574
-0.931973457,-0.31728664,-0.175369859,-0.002217114,-0.054173917,-0.012662768,-0.147650331,0.063420951,-0.046308696,0.32286692,-1.384800777,0.262669574
-0.931973457,-0.31728664,-0.175369859,-0.002217114,-0.054173917,-0.012662768,-0.147650331,0.063420951,-0.046308696,0.32286692,-1.384800777,0.262669574
-0.931973457,-0.31728664,-0.175369859,-0.002217114,-0.054173917,-0.012662768,-0.147650331,0.063420951,-0.046308696,0.32286692,-1.384800777,0.262669574
-0.931973457,-0.31728664,-0.175369859,-0.002217114,-0.054173917,-0.012662768,-0.147650331,0.063420951,-0.046308696,0.32286692,-1.384800777,0.262669574
-0.931845665,-0.317549676,-0.175572827,0.032139778,-0.018068045,-0.030098796,0.061446376,-0.023806144,-0.030483074,0.323144288,-1.384565505,0.258785838
-0.931845665,-0.317549676,-0.175572827,0.032139778,-0.018068045,-0.030098796,0.061446376,-0.023806144,-0.030483074,0.323144288,-1.384565505,0.258785838
-0.931845665,-0.317549676,-0.175572827,0.032139778,-0.018068045,-0.030098796,0.061446376,-0.023806144,-0.030483074,0.323144288,-1.384565505,0.258785838
-0.931845665,-0.317549676,-0.175572827,0.032139778,-0.018068045,-0.030098796,0.061446376,-0.023806144,-0.030483074,0.323144288,-1.384565505,0.258785838
-0.931845665,-0.317549676,-0.175572827,0.032139778,-0.018068045,-0.030098796,0.061446376,-0.023806144,-0.030483074,0.323144288,-1.384565505,0.258785838
-0.931845665,-0.317549676,-0.175572827,0.032139778,-0.018068045,-0.030098796,0.061446376,-0.023806144,-0.030483074,0.323144288,-1.384565505,0.258785838
-0.931845665,-0.317549676,-0.175572827,0.032139778,-0.018068045,-0.030098796,0.061446376,-0.023806144,-0.030483074,0.323144288,-1.384565505,0.258785838
-0.931845665,-0.317549676,-0.175572827,0.032139778,-0.018068045,-0.030098796,0.061446376,-0.023806144,-0.030483074,0.323144288,-1.384565505,0.258785838
-0.931845665,-0.317549676,-0.175572827,0.032139778,-0.018068045,-0.030098796,0.061446376,-0.023806144,-0.030483074,0.323144288,-1.384565505,0.258785838
-0.931845665,-0.317549676,-0.175572827,0.032139778,-0.018068045,-0.030098796,0.061446376,-0.023806144,-0.030483074,0.323144288,-1.384565505,0.258785838
-0.931845665,-0.317549676,-0.175572827,0.032139778,-0.018068045,-0.030098796,0.061446376,-0.023806144,-0.030483074,0.323144288,-1.384565505,0.258785838
-0.931028962,-0.319856822,-0.175717503,0.004238904,-0.035963476,-0.014115691,-0.055462129,0.01197023,0.009931993,0.325578365,-1.384255848,0.261008961
-0.931028962,-0.319856822,-0.175717503,0.004238904,-0.035963476,-0.014115691,-0.055462129,0.01197023,0.009931993,0.325578365,-1.384255848,0.261008961
-0.931028962,-0.319856822,-0.175717503,0.004238904,-0.035963476,-0.014115691,-0.055462129,0.01197023,0.009931993,0.325578365,-1.384255848,0.261008961
-0.931028962,-0.319856822,-0.175717503,0.004238904,-0.035963476,-0.014115691,-0.055462129,0.01197023,0.009931993,0.325578365,-1.384255848,0.261008961
-0.931028962,-0.319856822,-0.175717503,0.004238904,-0.035963476,-0.014115691,-0.055462129,0.01197023,0.009931993,0.325578365,-1.384255848,0.261008961
-0.931028962,-0.319856822,-0.175717503,0.004238904,-0.035963476,-0.014115691,-0.055462129,0.01197023,0.009931993,0.325578365,-1.384255848,0.261008961
-0.931028962,-0.319856822,-0.175717503,0.004238904,-0.035963476,-0.014115691,-0.055462129,0.01197023,0.009931993,0.325578365,-1.384255848,0.261008961
-0.931028962,-0.319856822,-0.175717503,0.004238904,-0.035963476,-0.014115691,-0.055462129,0.01197023,0.009931993,0.325578365,-1.384255848,0.261008961
-0.931028962,-0.319856822,-0.175717503,0.004238904,-0.035963476,-0.014115691,-0.055462129,0.01197023,0.009931993,0.325578365,-1.384255848,0.261008961
-0.931028962,-0.319856822,-0.175717503,0.004238904,-0.035963476,-0.014115691,-0.055462129,0.01197023,0.009931993,0.325578365,-1.384255848,0.261008961
-0.931028962,-0.319856822,-0.175717503,0.004238904,-0.035963476,-0.014115691,-0.055462129,0.01197023,0.009931993,0.325578365,-1.384255848,0.261008961
-0.931028962,-0.319856822,-0.175717503,0.004238904,-0.035963476,-0.014115691,-0.055462129,0.01197023,0.009931993,0.325578365,-1.384255848,0.261008961
-0.929920852,-0.321267188,-0.178981647,0.002138972,0.026237905,0.004254699,-0.019874163,-0.00191928,-0.03482344,0.327067312,-1.380651748,0.256522098
-0.929920852,-0.321267188,-0.178981647,0.002138972,0.026237905,0.004254699,-0.019874163,-0.00191928,-0.03482344,0.327067312,-1.380651748,0.256522098
-0.929920852,-0.321267188,-0.178981647,0.002138972,0.026237905,0.004254699,-0.019874163,-0.00191928,-0.03482344,0.327067312,-1.380651748,0.256522098
-0.929920852,-0.321267188,-0.178981647,0.002138972,0.026237905,0.004254699,-0.019874163,-0.00191928,-0.03482344,0.327067312,-1.380651748,0.256522098
-0.929920852,-0.321267188,-0.178981647,0.002138972,0.026237905,0.004254699,-0.019874163,-0.00191928,-0.03482344,0.327067312,-1.380651748,0.256522098
-0.929920852,-0.321267188,-0.178981647,0.002138972,0.026237905,0.004254699,-0.019874163,-0.00191928,-0.03482344,0.327067312,-1.380651748,0.256522098
-0.929920852,-0.321267188,-0.178981647,0.002138972,0.026237905,0.004254699,-0.019874163,-0.00191928,-0.03482344,0.327067312,-1.380651748,0.256522098
-0.929920852,-0.321267188,-0.178981647,0.002138972,0.026237905,0.004254699,-0.019874163,-0.00191928,-0.03482344,0.327067312,-1.380651748,0.256522098
-0.929920852,-0.321267188,-0.178981647,0.002138972,0.026237905,0.004254699,-0.019874163,-0.00191928,-0.03482344,0.327067312,-1.380651748,0.256522098
-0.929920852,-0.321267188,-0.178981647,0.002138972,0.026237905,0.004254699,-0.019874163,-0.00191928,-0.03482344,0.327067312,-1.380651748,0.256522098
-0.929920852,-0.321267188,-0.178981647,0.002138972,0.026237905,0.004254699,-0.019874163,-0.00191928,-0.03482344,0.327067312,-1.380651748,0.256522098
-0.929920852,-0.321267188,-0.178981647,0.002138972,0.026237905,0.004254699,-0.019874163,-0.00191928,-0.03482344,0.327067312,-1.380651748,0.256522098
-0.929920852,-0.321267188,-0.178981647,0.002138972,0.026237905,0.004254699,-0.019874163,-0.00191928,-0.03482344,0.327067312,-1.380651748,0.256522098
-0.929920852,-0.321267188,-0.178981647,0.002138972,0.026237905,0.004254699,-0.019874163,-0.00191928,-0.03482344,0.327067312,-1.380651748,0.256522098
-0.929920852,-0.321267188,-0.178981647,0.002138972,0.026237905,0.004254699,-0.019874163,-0.00191928,-0.03482344,0.327067312,-1.380651748,0.256522098
-0.929262877,-0.323124737,-0.179054737,-0.010756373,0.014072686,0.021737814,-0.012322756,0.015047853,-0.020545648,0.329029501,-1.380444505,0.257024218
-0.929262877,-0.323124737,-0.179054737,-0.010756373,0.014072686,0.021737814,-0.012322756,0.015047853,-0.020545648,0.329029501,-1.380444505,0.257024218
-0.929262877,-0.323124737,-0.179054737,-0.010756373,0.014072686,0.021737814,-0.012322756,0.015047853,-0.020545648,0.329029501,-1.380444505,0.257024218
-0.929262877,-0.323124737,-0.179054737,-0.010756373,0.014072686,0.021737814,-0.012322756,0.015047853,-0.020545648,0.329029501,-1.380444505,0.257024218
-0.929262877,-0.323124737,-0.179054737,-0.010756373,0.014072686,0.021737814,-0.012322756,0.015047853,-0.020545648,0.329029501,-1.380444505,0.257024218
-0.929262877,-0.323124737,-0.179054737,-0.010756373,0.014072686,0.021737814,-0.012322756,0.015047853,-0.020545648,0.329029501,-1.380444505,0.257024218
-0.929262877,-0.323124737,-0.179054737,-0.010756373,0.014072686,0.021737814,-0.012322756,0.015047853,-0.020545648,0.329029501,-1.380444505,0.257024218
-0.929262877,-0.323124737,-0.179054737,-0.010756373,0.014072686,0.021737814,-0.012322756,0.015047853,-0.020545648,0.329029501,-1.380444505,0.257024218
-0.929262877,-0.323124737,-0.179054737,-0.010756373,0.014072686,0.021737814,-0.012322756,0.015047853,-0.020545648,0.329029501,-1.380444505,0.257024218
-0.927955091,-0.321739525,-0.188102961,-0.059976399,0.037773073,0.18224448,-0.416714042,0.47942093,-0.139163792,0.327566134,-1.370799275,0.245052971
-0.927955091,-0.321739525,-0.188102961,-0.059976399,0.037773073,0.18224448,-0.416714042,0.47942093,-0.139163792,0.327566134,-1.370799275,0.245052971
-0.927955091,-0.321739525,-0.188102961,-0.059976399,0.037773073,0.18224448,-0.416714042,0.47942093,-0.139163792,0.327566134,-1.370799275,0.245052971
-0.927955091,-0.321739525,-0.188102961,-0.059976399,0.037773073,0.18224448,-0.416714042,0.47942093,-0.139163792,0.327566134,-1.370799275,0.245052971
-0.927955091,-0.321739525,-0.188102961,-0.059976399,0.037773073,0.18224448,-0.416714042,0.47942093,-0.139163792,0.327566134,-1.370799275,0.245052971
-0.927955091,-0.321739525,-0.188102961,-0.059976399,0.037773073,0.18224448,-0.416714042,0.47942093,-0.139163792,0.327566134,-1.370799275,0.245052971
-0.925283372,-0.320740283,-0.202425957,0.112965465,-0.054397404,-0.043941736,0.164616615,-0.037134696,-0.061769199,0.326510964,-1.355417765,0.231022183
-0.925283372,-0.320740283,-0.202425957,0.112965465,-0.054397404,-0.043941736,0.164616615,-0.037134696,-0.061769199,0.326510964,-1.355417765,0.231022183
-0.925283372,-0.320740283,-0.202425957,0.112965465,-0.054397404,-0.043941736,0.164616615,-0.037134696,-0.061769199,0.326510964,-1.355417765,0.231022183
-0.925283372,-0.320740283,-0.202425957,0.112965465,-0.054397404,-0.043941736,0.164616615,-0.037134696,-0.061769199,0.326510964,-1.355417765,0.231022183
-0.925283372,-0.320740283,-0.202425957,0.112965465,-0.054397404,-0.043941736,0.164616615,-0.037134696,-0.061769199,0.326510964,-1.355417765,0.231022183
-0.925283372,-0.320740283,-0.202425957,0.112965465,-0.054397404,-0.043941736,0.164616615,-0.037134696,-0.061769199,0.326510964,-1.355417765,0.231022183
-0.928279281,-0.323600501,-0.183248594,0.080210268,0.126655012,-0.037240326,0.242209777,-0.053989649,-0.153577253,0.329532261,-1.375895525,0.249385812
-0.928279281,-0.323600501,-0.183248594,0.080210268,0.126655012,-0.037240326,0.242209777,-0.053989649,-0.153577253,0.329532261,-1.375895525,0.249385812
-0.928279281,-0.323600501,-0.183248594,0.080210268,0.126655012,-0.037240326,0.242209777,-0.053989649,-0.153577253,0.329532261,-1.375895525,0.249385812
-0.928279281,-0.323600501,-0.183248594,0.080210268,0.126655012,-0.037240326,0.242209777,-0.053989649,-0.153577253,0.329532261,-1.375895525,0.249385812
-0.928279281,-0.323600501,-0.183248594,0.080210268,0.126655012,-0.037240326,0.242209777,-0.053989649,-0.153577253,0.329532261,-1.375895525,0.249385812
-0.928279281,-0.323600501,-0.183248594,0.080210268,0.126655012,-0.037240326,0.242209777,-0.053989649,-0.153577253,0.329532261,-1.375895525,0.249385812
-0.928279281,-0.323600501,-0.183248594,0.080210268,0.126655012,-0.037240326,0.242209777,-0.053989649,-0.153577253,0.329532261,-1.375895525,0.249385812
-0.928279281,-0.323600501,-0.183248594,0.080210268,0.126655012,-0.037240326,0.242209777,-0.053989649,-0.153577253,0.329532261,-1.375895525,0.249385812
-0.926213443,-0.324306309,-0.192234412,0.065678298,-0.047397912,-0.066462815,-0.447075814,0.023832833,0.00842507,0.330278314,-1.366153031,0.238615459
-0.926213443,-0.324306309,-0.192234412,0.065678298,-0.047397912,-0.066462815,-0.447075814,0.023832833,0.00842507,0.330278314,-1.366153031,0.238615459
-0.926213443,-0.324306309,-0.192234412,0.065678298,-0.047397912,-0.066462815,-0.447075814,0.023832833,0.00842507,0.330278314,-1.366153031,0.238615459
-0.926213443,-0.324306309,-0.192234412,0.065678298,-0.047397912,-0.066462815,-0.447075814,0.023832833,0.00842507,0.330278314,-1.366153031,0.238615459
-0.926213443,-0.324306309,-0.192234412,0.065678298,-0.047397912,-0.066462815,-0.447075814,0.023832833,0.00842507,0.330278314,-1.366153031,0.238615459
-0.926213443,-0.324306309,-0.192234412,0.065678298,-0.047397912,-0.066462815,-0.447075814,0.023832833,0.00842507,0.330278314,-1.366153031,0.238615459
-0.926213443,-0.324306309,-0.192234412,0.065678298,-0.047397912,-0.066462815,-0.447075814,0.023832833,0.00842507,0.330278314,-1.366153031,0.238615459
-0.926213443,-0.324306309,-0.192234412,0.065678298,-0.047397912,-0.066462815,-0.447075814,0.023832833,0.00842507,0.330278314,-1.366153031,0.238615459
-0.926213443,-0.324306309,-0.192234412,0.065678298,-0.047397912,-0.066462815,-0.447075814,0.023832833,0.00842507,0.330278314,-1.366153031,0.238615459
-0.925253451,-0.320132971,-0.203520745,-0.023614585,0.010196358,0.024718404,-0.205115765,0.138928831,0.048056368,0.325869848,-1.354282122,0.223160248
-0.925253451,-0.320132971,-0.203520745,-0.023614585,0.010196358,0.024718404,-0.205115765,0.138928831,0.048056368,0.325869848,-1.354282122,0.223160248
-0.925253451,-0.320132971,-0.203520745,-0.023614585,0.010196358,0.024718404,-0.205115765,0.138928831,0.048056368,0.325869848,-1.354282122,0.223160248
-0.925253451,-0.320132971,-0.203520745,-0.023614585,0.010196358,0.024718404,-0.205115765,0.138928831,0.048056368,0.325869848,-1.354282122,0.223160248
-0.925253451,-0.320132971,-0.203520745,-0.023614585,0.010196358,0.024718404,-0.205115765,0.138928831,0.048056368,0.325869848,-1.354282122,0.223160248
-0.925253451,-0.320132971,-0.203520745,-0.023614585,0.010196358,0.024718404,-0.205115765,0.138928831,0.048056368,0.325869848,-1.354282122,0.223160248
-0.925253451,-0.320132971,-0.203520745,-0.023614585,0.010196358,0.024718404,-0.205115765,0.138928831,0.048056368,0.325869848,-1.354282122,0.223160248
-0.925253451,-0.320132971,-0.203520745,-0.023614585,0.010196358,0.024718404,-0.205115765,0.138928831,0.048056368,0.325869848,-1.354282122,0.223160248
-0.925253451,-0.320132971,-0.203520745,-0.023614585,0.010196358,0.024718404,-0.205115765,0.138928831,0.048056368,0.325869848,-1.354282122,0.223160248
-0.925253451,-0.320132971,-0.203520745,-0.023614585,0.010196358,0.024718404,-0.205115765,0.138928831,0.048056368,0.325869848,-1.354282122,0.223160248
-0.925253451,-0.320132971,-0.203520745,-0.023614585,0.010196358,0.024718404,-0.205115765,0.138928831,0.048056368,0.325869848,-1.354282122,0.223160248
-0.92392385,-0.321316302,-0.207654953,0.009525061,0.040920585,0.024748325,-0.03803483,0.051737208,-0.014967072,0.327119179,-1.349716685,0.21970368
-0.92392385,-0.321316302,-0.207654953,0.009525061,0.040920585,0.024748325,-0.03803483,0.051737208,-0.014967072,0.327119179,-1.349716685,0.21970368
-0.92392385,-0.321316302,-0.207654953,0.009525061,0.040920585,0.024748325,-0.03803483,0.051737208,-0.014967072,0.327119179,-1.349716685,0.21970368
-0.92392385,-0.321316302,-0.207654953,0.009525061,0.040920585,0.024748325,-0.03803483,0.051737208,-0.014967072,0.327119179,-1.349716685,0.21970368
-0.92392385,-0.321316302,-0.207654953,0.009525061,0.040920585,0.024748325,-0.03803483,0.051737208,-0.014967072,0.327119179,-1.349716685,0.21970368
-0.92392385,-0.321316302,-0.207654953,0.009525061,0.040920585,0.024748325,-0.03803483,0.051737208,-0.014967072,0.327119179,-1.349716685,0.21970368
-0.92392385,-0.321316302,-0.207654953,0.009525061,0.040920585,0.024748325,-0.03803483,0.051737208,-0.014967072,0.327119179,-1.349716685,0.21970368
-0.92392385,-0.321316302,-0.207654953,0.009525061,0.040920585,0.024748325,-0.03803483,0.051737208,-0.014967072,0.327119179,-1.349716685,0.21970368
-0.92392385,-0.321316302,-0.207654953,0.009525061,0.040920585,0.024748325,-0.03803483,0.051737208,-0.014967072,0.327119179,-1.349716685,0.21970368
-0.92392385,-0.321316302,-0.207654953,0.009525061,0.040920585,0.024748325,-0.03803483,0.051737208,-0.014967072,0.327119179,-1.349716685,0.21970368
-0.92392385,-0.321316302,-0.207654953,0.009525061,0.040920585,0.024748325,-0.03803483,0.051737208,-0.014967072,0.327119179,-1.349716685,0.21970368
-0.92392385,-0.321316302,-0.207654953,0.009525061,0.040920585,0.024748325,-0.03803483,0.051737208,-0.014967072,0.327119179,-1.349716685,0.21970368
-0.92392385,-0.321316302,-0.207654953,0.009525061,0.040920585,0.024748325,-0.03803483,0.051737208,-0.014967072,0.327119179,-1.349716685,0.21970368
-0.92392385,-0.321316302,-0.207654953,0.009525061,0.040920585,0.024748325,-0.03803483,0.051737208,-0.014967072,0.327119179,-1.349716685,0.21970368
-0.92392385,-0.321316302,-0.207654953,0.009525061,0.040920585,0.024748325,-0.03803483,0.051737208,-0.014967072,0.327119179,-1.349716685,0.21970368
-0.92392385,-0.321316302,-0.207654953,0.009525061,0.040920585,0.024748325,-0.03803483,0.051737208,-0.014967072,0.327119179,-1.349716685,0.21970368
-0.923636615,-0.321551919,-0.208565459,0.016836703,0.038073957,0.02913779,0.113786854,-0.000427741,-0.041650347,0.327367999,-1.348712003,0.220191861
-0.923636615,-0.321551919,-0.208565459,0.016836703,0.038073957,0.02913779,0.113786854,-0.000427741,-0.041650347,0.327367999,-1.348712003,0.220191861
-0.923636615,-0.321551919,-0.208565459,0.016836703,0.038073957,0.02913779,0.113786854,-0.000427741,-0.041650347,0.327367999,-1.348712003,0.220191861
-0.923636615,-0.321551919,-0.208565459,0.016836703,0.038073957,0.02913779,0.113786854,-0.000427741,-0.041650347,0.327367999,-1.348712003,0.220191861
-0.923636615,-0.321551919,-0.208565459,0.016836703,0.038073957,0.02913779,0.113786854,-0.000427741,-0.041650347,0.327367999,-1.348712003,0.220191861
-0.923636615,-0.321551919,-0.208565459,0.016836703,0.038073957,0.02913779,0.113786854,-0.000427741,-0.041650347,0.327367999,-1.348712003,0.220191861
-0.923636615,-0.321551919,-0.208565459,0.016836703,0.038073957,0.02913779,0.113786854,-0.000427741,-0.041650347,0.327367999,-1.348712003,0.220191861
-0.923636615,-0.321551919,-0.208565459,0.016836703,0.038073957,0.02913779,0.113786854,-0.000427741,-0.041650347,0.327367999,-1.348712003,0.220191861
-0.923636615,-0.321551919,-0.208565459,0.016836703,0.038073957,0.02913779,0.113786854,-0.000427741,-0.041650347,0.327367999,-1.348712003,0.220191861
-0.923636615,-0.321551919,-0.208565459,0.016836703,0.038073957,0.02913779,0.113786854,-0.000427741,-0.041650347,0.327367999,-1.348712003,0.220191861
-0.923636615,-0.321551919,-0.208565459,0.016836703,0.038073957,0.02913779,0.113786854,-0.000427741,-0.041650347,0.327367999,-1.348712003,0.220191861
-0.923636615,-0.321551919,-0.208565459,0.016836703,0.038073957,0.02913779,0.113786854,-0.000427741,-0.041650347,0.327367999,-1.348712003,0.220191861
-0.923636615,-0.321551919,-0.208565459,0.016836703,0.038073957,0.02913779,0.113786854,-0.000427741,-0.041650347,0.327367999,-1.348712003,0.220191861
-0.923636615,-0.321551919,-0.208565459,0.016836703,0.038073957,0.02913779,0.113786854,-0.000427741,-0.041650347,0.327367999,-1.348712003,0.220191861
-0.923724949,-0.322365135,-0.206912696,0.010058165,-0.008140564,-0.005931437,0.02602073,0.020938653,-0.035564438,0.328226942,-1.350435647,0.223994822