gravityX,gravityY,gravityZ,accelX,accelY,accelZ,rotRateX,rotRatY,rotRateZ,attPitch,attRoll,attYaw
-0.070232421,-0.187772751,-0.9796983,0.00091172,0.012968019,0.003776729,0.027240645,-0.010195441,-0.00184408,0.188894072,-0.071565374,0.006613305
-0.070232421,-0.187772751,-0.9796983,0.00091172,0.012968019,0.003776729,0.027240645,-0.010195441,-0.00184408,0.188894072,-0.071565374,0.006613305
-0.070232421,-0.187772751,-0.9796983,0.00091172,0.012968019,0.003776729,0.027240645,-0.010195441,-0.00184408,0.188894072,-0.071565374,0.006613305
-0.070232421,-0.187772751,-0.9796983,0.00091172,0.012968019,0.003776729,0.027240645,-0.010195441,-0.00184408,0.188894072,-0.071565374,0.006613305
-0.070232421,-0.187772751,-0.9796983,0.00091172,0.012968019,0.003776729,0.027240645,-0.010195441,-0.00184408,0.188894072,-0.071565374,0.006613305
-0.070543371,-0.188505441,-0.979535282,0.000795424,0.003935069,0.017453372,0.043593798,-0.02022516,0.020816546,0.189640078,-0.071893063,0.006903614
-0.070543371,-0.188505441,-0.979535282,0.000795424,0.003935069,0.017453372,0.043593798,-0.02022516,0.020816546,0.189640078,-0.071893063,0.006903614
-0.070543371,-0.188505441,-0.979535282,0.000795424,0.003935069,0.017453372,0.043593798,-0.02022516,0.020816546,0.189640078,-0.071893063,0.006903614
-0.070543371,-0.188505441,-0.979535282,0.000795424,0.003935069,0.017453372,0.043593798,-0.02022516,0.020816546,0.189640078,-0.071893063,0.006903614
-0.070543371,-0.188505441,-0.979535282,0.000795424,0.003935069,0.017453372,0.043593798,-0.02022516,0.020816546,0.189640078,-0.071893063,0.006903614
-0.070543371,-0.188505441,-0.979535282,0.000795424,0.003935069,0.017453372,0.043593798,-0.02022516,0.020816546,0.189640078,-0.071893063,0.006903614
-0.070543371,-0.188505441,-0.979535282,0.000795424,0.003935069,0.017453372,0.043593798,-0.02022516,0.020816546,0.189640078,-0.071893063,0.006903614
-0.071105599,-0.189425692,-0.979317069,-0.003158949,0.00459592,0.011162162,0.051097244,-0.027860574,0.023874067,0.190577222,-0.072480146,0.007421761
-0.071105599,-0.189425692,-0.979317069,-0.003158949,0.00459592,0.011162162,0.051097244,-0.027860574,0.023874067,0.190577222,-0.072480146,0.007421761
-0.071105599,-0.189425692,-0.979317069,-0.003158949,0.00459592,0.011162162,0.051097244,-0.027860574,0.023874067,0.190577222,-0.072480146,0.007421761
-0.071105599,-0.189425692,-0.979317069,-0.003158949,0.00459592,0.011162162,0.051097244,-0.027860574,0.023874067,0.190577222,-0.072480146,0.007421761
-0.071105599,-0.189425692,-0.979317069,-0.003158949,0.00459592,0.011162162,0.051097244,-0.027860574,0.023874067,0.190577222,-0.072480146,0.007421761
-0.071105599,-0.189425692,-0.979317069,-0.003158949,0.00459592,0.011162162,0.051097244,-0.027860574,0.023874067,0.190577222,-0.072480146,0.007421761
-0.071105599,-0.189425692,-0.979317069,-0.003158949,0.00459592,0.011162162,0.051097244,-0.027860574,0.023874067,0.190577222,-0.072480146,0.007421761
-0.071105599,-0.189425692,-0.979317069,-0.003158949,0.00459592,0.011162162,0.051097244,-0.027860574,0.023874067,0.190577222,-0.072480146,0.007421761
-0.071105599,-0.189425692,-0.979317069,-0.003158949,0.00459592,0.011162162,0.051097244,-0.027860574,0.023874067,0.190577222,-0.072480146,0.007421761
-0.071105599,-0.189425692,-0.979317069,-0.003158949,0.00459592,0.011162162,0.051097244,-0.027860574,0.023874067,0.190577222,-0.072480146,0.007421761
-0.071105599,-0.189425692,-0.979317069,-0.003158949,0.00459592,0.011162162,0.051097244,-0.027860574,0.023874067,0.190577222,-0.072480146,0.007421761
-0.071105599,-0.189425692,-0.979317069,-0.003158949,0.00459592,0.011162162,0.051097244,-0.027860574,0.023874067,0.190577222,-0.072480146,0.007421761
-0.071850762,-0.190388143,-0.979076028,0.001233071,0.00387992,0.008189797,0.051369101,-0.034428291,0.032280389,0.191557509,-0.073254977,0.008032098
-0.071850762,-0.190388143,-0.979076028,0.001233071,0.00387992,0.008189797,0.051369101,-0.034428291,0.032280389,0.191557509,-0.073254977,0.008032098
-0.071850762,-0.190388143,-0.979076028,0.001233071,0.00387992,0.008189797,0.051369101,-0.034428291,0.032280389,0.191557509,-0.073254977,0.008032098
-0.071850762,-0.190388143,-0.979076028,0.001233071,0.00387992,0.008189797,0.051369101,-0.034428291,0.032280389,0.191557509,-0.073254977,0.008032098
-0.071850762,-0.190388143,-0.979076028,0.001233071,0.00387992,0.008189797,0.051369101,-0.034428291,0.032280389,0.191557509,-0.073254977,0.008032098
-0.072710969,-0.191230908,-0.978848219,-0.000943214,-0.007118091,0.009396315,0.033318829,-0.042731304,0.026307344,0.192416048,-0.074145995,0.008781684
-0.072710969,-0.191230908,-0.978848219,-0.000943214,-0.007118091,0.009396315,0.033318829,-0.042731304,0.026307344,0.192416048,-0.074145995,0.008781684
-0.072710969,-0.191230908,-0.978848219,-0.000943214,-0.007118091,0.009396315,0.033318829,-0.042731304,0.026307344,0.192416048,-0.074145995,0.008781684
-0.072710969,-0.191230908,-0.978848219,-0.000943214,-0.007118091,0.009396315,0.033318829,-0.042731304,0.026307344,0.192416048,-0.074145995,0.008781684
-0.072710969,-0.191230908,-0.978848219,-0.000943214,-0.007118091,0.009396315,0.033318829,-0.042731304,0.026307344,0.192416048,-0.074145995,0.008781684
-0.072710969,-0.191230908,-0.978848219,-0.000943214,-0.007118091,0.009396315,0.033318829,-0.042731304,0.026307344,0.192416048,-0.074145995,0.008781684
-0.072710969,-0.191230908,-0.978848219,-0.000943214,-0.007118091,0.009396315,0.033318829,-0.042731304,0.026307344,0.192416048,-0.074145995,0.008781684
-0.072710969,-0.191230908,-0.978848219,-0.000943214,-0.007118091,0.009396315,0.033318829,-0.042731304,0.026307344,0.192416048,-0.074145995,0.008781684
-0.072710969,-0.191230908,-0.978848219,-0.000943214,-0.007118091,0.009396315,0.033318829,-0.042731304,0.026307344,0.192416048,-0.074145995,0.008781684
-0.073457852,-0.19153519,-0.978732944,-0.005018108,-0.014260098,0.012180269,0.007029597,-0.023272892,0.003680968,0.192726061,-0.074913571,0.00908183
-0.073457852,-0.19153519,-0.978732944,-0.005018108,-0.014260098,0.012180269,0.007029597,-0.023272892,0.003680968,0.192726061,-0.074913571,0.00908183
-0.073457852,-0.19153519,-0.978732944,-0.005018108,-0.014260098,0.012180269,0.007029597,-0.023272892,0.003680968,0.192726061,-0.074913571,0.00908183
-0.073457852,-0.19153519,-0.978732944,-0.005018108,-0.014260098,0.012180269,0.007029597,-0.023272892,0.003680968,0.192726061,-0.074913571,0.00908183
-0.073457852,-0.19153519,-0.978732944,-0.005018108,-0.014260098,0.012180269,0.007029597,-0.023272892,0.003680968,0.192726061,-0.074913571,0.00908183
-0.073457852,-0.19153519,-0.978732944,-0.005018108,-0.014260098,0.012180269,0.007029597,-0.023272892,0.003680968,0.192726061,-0.074913571,0.00908183
-0.073457852,-0.19153519,-0.978732944,-0.005018108,-0.014260098,0.012180269,0.007029597,-0.023272892,0.003680968,0.192726061,-0.074913571,0.00908183
-0.073457852,-0.19153519,-0.978732944,-0.005018108,-0.014260098,0.012180269,0.007029597,-0.023272892,0.003680968,0.192726061,-0.074913571,0.00908183
-0.073457852,-0.19153519,-0.978732944,-0.005018108,-0.014260098,0.012180269,0.007029597,-0.023272892,0.003680968,0.192726061,-0.074913571,0.00908183
-0.073916502,-0.191587925,-0.978688121,-0.001233041,-0.00171043,0.011143565,-0.002850638,-0.021674838,0.004734887,0.192779782,-0.07538299,0.009051045
-0.073916502,-0.191587925,-0.978688121,-0.001233041,-0.00171043,0.011143565,-0.002850638,-0.021674838,0.004734887,0.192779782,-0.07538299,0.009051045
-0.073916502,-0.191587925,-0.978688121,-0.001233041,-0.00171043,0.011143565,-0.002850638,-0.021674838,0.004734887,0.192779782,-0.07538299,0.009051045
-0.073916502,-0.191587925,-0.978688121,-0.001233041,-0.00171043,0.011143565,-0.002850638,-0.021674838,0.004734887,0.192779782,-0.07538299,0.009051045
-0.073916502,-0.191587925,-0.978688121,-0.001233041,-0.00171043,0.011143565,-0.002850638,-0.021674838,0.004734887,0.192779782,-0.07538299,0.009051045
-0.073916502,-0.191587925,-0.978688121,-0.001233041,-0.00171043,0.011143565,-0.002850638,-0.021674838,0.004734887,0.192779782,-0.07538299,0.009051045
-0.073916502,-0.191587925,-0.978688121,-0.001233041,-0.00171043,0.011143565,-0.002850638,-0.021674838,0.004734887,0.192779782,-0.07538299,0.009051045
-0.073916502,-0.191587925,-0.978688121,-0.001233041,-0.00171043,0.011143565,-0.002850638,-0.021674838,0.004734887,0.192779782,-0.07538299,0.009051045
-0.073916502,-0.191587925,-0.978688121,-0.001233041,-0.00171043,0.011143565,-0.002850638,-0.021674838,0.004734887,0.192779782,-0.07538299,0.009051045
-0.073916502,-0.191587925,-0.978688121,-0.001233041,-0.00171043,0.011143565,-0.002850638,-0.021674838,0.004734887,0.192779782,-0.07538299,0.009051045
-0.074338265,-0.191455409,-0.978682101,-0.002764404,-0.003765538,0.011534274,-0.011973523,-0.018595073,0.005184854,0.192644774,-0.07581194,0.009170451
-0.074338265,-0.191455409,-0.978682101,-0.002764404,-0.003765538,0.011534274,-0.011973523,-0.018595073,0.005184854,0.192644774,-0.07581194,0.009170451
-0.074338265,-0.191455409,-0.978682101,-0.002764404,-0.003765538,0.011534274,-0.011973523,-0.018595073,0.005184854,0.192644774,-0.07581194,0.009170451
-0.074338265,-0.191455409,-0.978682101,-0.002764404,-0.003765538,0.011534274,-0.011973523,-0.018595073,0.005184854,0.192644774,-0.07581194,0.009170451
-0.074338265,-0.191455409,-0.978682101,-0.002764404,-0.003765538,0.011534274,-0.011973523,-0.018595073,0.005184854,0.192644774,-0.07581194,0.009170451
-0.074338265,-0.191455409,-0.978682101,-0.002764404,-0.003765538,0.011534274,-0.011973523,-0.018595073,0.005184854,0.192644774,-0.07581194,0.009170451
-0.074338265,-0.191455409,-0.978682101,-0.002764404,-0.003765538,0.011534274,-0.011973523,-0.018595073,0.005184854,0.192644774,-0.07581194,0.009170451
-0.074338265,-0.191455409,-0.978682101,-0.002764404,-0.003765538,0.011534274,-0.011973523,-0.018595073,0.005184854,0.192644774,-0.07581194,0.009170451
-0.074338265,-0.191455409,-0.978682101,-0.002764404,-0.003765538,0.011534274,-0.011973523,-0.018595073,0.005184854,0.192644774,-0.07581194,0.009170451
-0.072656371,-0.195038214,-0.978100777,-0.005880624,-0.004134759,0.011639595,-0.010013197,-0.002364706,0.000387063,0.196296411,-0.074146929,0.00892384
-0.072656371,-0.195038214,-0.978100777,-0.005880624,-0.004134759,0.011639595,-0.010013197,-0.002364706,0.000387063,0.196296411,-0.074146929,0.00892384
-0.072656371,-0.195038214,-0.978100777,-0.005880624,-0.004134759,0.011639595,-0.010013197,-0.002364706,0.000387063,0.196296411,-0.074146929,0.00892384
-0.072656371,-0.195038214,-0.978100777,-0.005880624,-0.004134759,0.011639595,-0.010013197,-0.002364706,0.000387063,0.196296411,-0.074146929,0.00892384
-0.072656371,-0.195038214,-0.978100777,-0.005880624,-0.004134759,0.011639595,-0.010013197,-0.002364706,0.000387063,0.196296411,-0.074146929,0.00892384
-0.072656371,-0.195038214,-0.978100777,-0.005880624,-0.004134759,0.011639595,-0.010013197,-0.002364706,0.000387063,0.196296411,-0.074146929,0.00892384
-0.072656371,-0.195038214,-0.978100777,-0.005880624,-0.004134759,0.011639595,-0.010013197,-0.002364706,0.000387063,0.196296411,-0.074146929,0.00892384
-0.072656371,-0.195038214,-0.978100777,-0.005880624,-0.004134759,0.011639595,-0.010013197,-0.002364706,0.000387063,0.196296411,-0.074146929,0.00892384
-0.072656371,-0.195038214,-0.978100777,-0.005880624,-0.004134759,0.011639595,-0.010013197,-0.002364706,0.000387063,0.196296411,-0.074146929,0.00892384
-0.072656371,-0.195038214,-0.978100777,-0.005880624,-0.004134759,0.011639595,-0.010013197,-0.002364706,0.000387063,0.196296411,-0.074146929,0.00892384
-0.072656371,-0.195038214,-0.978100777,-0.005880624,-0.004134759,0.011639595,-0.010013197,-0.002364706,0.000387063,0.196296411,-0.074146929,0.00892384
-0.074129157,-0.199396387,-0.977111042,-0.00668139,0.005090952,0.006056964,-0.022962084,0.021278778,-0.01256602,0.200741894,-0.075720592,0.009129395
-0.074129157,-0.199396387,-0.977111042,-0.00668139,0.005090952,0.006056964,-0.022962084,0.021278778,-0.01256602,0.200741894,-0.075720592,0.009129395
-0.074129157,-0.199396387,-0.977111042,-0.00668139,0.005090952,0.006056964,-0.022962084,0.021278778,-0.01256602,0.200741894,-0.075720592,0.009129395
-0.074129157,-0.199396387,-0.977111042,-0.00668139,0.005090952,0.006056964,-0.022962084,0.021278778,-0.01256602,0.200741894,-0.075720592,0.009129395
-0.074129157,-0.199396387,-0.977111042,-0.00668139,0.005090952,0.006056964,-0.022962084,0.021278778,-0.01256602,0.200741894,-0.075720592,0.009129395
-0.074129157,-0.199396387,-0.977111042,-0.00668139,0.005090952,0.006056964,-0.022962084,0.021278778,-0.01256602,0.200741894,-0.075720592,0.009129395
-0.074103363,-0.193963677,-0.978205919,0.002356656,0.003747925,0.008479297,0.014522413,-0.007969606,-0.000263654,0.195200959,-0.075609949,0.007537749
-0.074103363,-0.193963677,-0.978205919,0.002356656,0.003747925,0.008479297,0.014522413,-0.007969606,-0.000263654,0.195200959,-0.075609949,0.007537749
-0.074103363,-0.193963677,-0.978205919,0.002356656,0.003747925,0.008479297,0.014522413,-0.007969606,-0.000263654,0.195200959,-0.075609949,0.007537749
-0.074103363,-0.193963677,-0.978205919,0.002356656,0.003747925,0.008479297,0.014522413,-0.007969606,-0.000263654,0.195200959,-0.075609949,0.007537749
-0.074103363,-0.193963677,-0.978205919,0.002356656,0.003747925,0.008479297,0.014522413,-0.007969606,-0.000263654,0.195200959,-0.075609949,0.007537749
-0.074103363,-0.193963677,-0.978205919,0.002356656,0.003747925,0.008479297,0.014522413,-0.007969606,-0.000263654,0.195200959,-0.075609949,0.007537749
-0.074103363,-0.193963677,-0.978205919,0.002356656,0.003747925,0.008479297,0.014522413,-0.007969606,-0.000263654,0.195200959,-0.075609949,0.007537749
-0.074103363,-0.193963677,-0.978205919,0.002356656,0.003747925,0.008479297,0.014522413,-0.007969606,-0.000263654,0.195200959,-0.075609949,0.007537749
-0.074103363,-0.193963677,-0.978205919,0.002356656,0.003747925,0.008479297,0.014522413,-0.007969606,-0.000263654,0.195200959,-0.075609949,0.007537749
-0.074276954,-0.194196925,-0.978146434,0.001568943,0.000395373,0.008160472,0.002148009,-0.008724975,0.008489784,0.195438727,-0.075790977,0.007639467
-0.074276954,-0.194196925,-0.978146434,0.001568943,0.000395373,0.008160472,0.002148009,-0.008724975,0.008489784,0.195438727,-0.075790977,0.007639467
-0.074276954,-0.194196925,-0.978146434,0.001568943,0.000395373,0.008160472,0.002148009,-0.008724975,0.008489784,0.195438727,-0.075790977,0.007639467
-0.074380882,-0.194399908,-0.978098214,0.000864156,0.00300923,0.010111153,0.003713389,-0.002980537,0.02026804,0.195645653,-0.075900348,0.007975719
-0.074380882,-0.194399908,-0.978098214,0.000864156,0.00300923,0.010111153,0.003713389,-0.002980537,0.02026804,0.195645653,-0.075900348,0.007975719
-0.074380882,-0.194399908,-0.978098214,0.000864156,0.00300923,0.010111153,0.003713389,-0.002980537,0.02026804,0.195645653,-0.075900348,0.007975719
-0.074470133,-0.194543764,-0.978062868,-6.89E-05,0.00486207,0.00903815,0.014964499,-0.002481896,0.009608418,0.195792301,-0.075993808,0.008375239
-0.074470133,-0.194543764,-0.978062868,-6.89E-05,0.00486207,0.00903815,0.014964499,-0.002481896,0.009608418,0.195792301,-0.075993808,0.008375239
-0.074470133,-0.194543764,-0.978062868,-6.89E-05,0.00486207,0.00903815,0.014964499,-0.002481896,0.009608418,0.195792301,-0.075993808,0.008375239
-0.074470133,-0.194543764,-0.978062868,-6.89E-05,0.00486207,0.00903815,0.014964499,-0.002481896,0.009608418,0.195792301,-0.075993808,0.008375239
-0.074470133,-0.194543764,-0.978062868,-6.89E-05,0.00486207,0.00903815,0.014964499,-0.002481896,0.009608418,0.195792301,-0.075993808,0.008375239
-0.074362256,-0.194826767,-0.978014708,-0.002877615,0.005084053,0.014361143,0.038532022,0.001451749,0.012536883,0.196080824,-0.075887865,0.008688476
-0.074362256,-0.194826767,-0.978014708,-0.002877615,0.005084053,0.014361143,0.038532022,0.001451749,0.012536883,0.196080824,-0.075887865,0.008688476
-0.074362256,-0.194826767,-0.978014708,-0.002877615,0.005084053,0.014361143,0.038532022,0.001451749,0.012536883,0.196080824,-0.075887865,0.008688476
-0.074362256,-0.194826767,-0.978014708,-0.002877615,0.005084053,0.014361143,0.038532022,0.001451749,0.012536883,0.196080824,-0.075887865,0.008688476
-0.074362256,-0.194826767,-0.978014708,-0.002877615,0.005084053,0.014361143,0.038532022,0.001451749,0.012536883,0.196080824,-0.075887865,0.008688476
-0.074362256,-0.194826767,-0.978014708,-0.002877615,0.005084053,0.014361143,0.038532022,0.001451749,0.012536883,0.196080824,-0.075887865,0.008688476
-0.074605107,-0.195347399,-0.977892339,0.007863298,0.004948542,0.002886236,0.019493351,-0.010689555,0.003449113,0.19661166,-0.076144237,0.008819378
-0.074605107,-0.195347399,-0.977892339,0.007863298,0.004948542,0.002886236,0.019493351,-0.010689555,0.003449113,0.19661166,-0.076144237,0.008819378
-0.074605107,-0.195347399,-0.977892339,0.007863298,0.004948542,0.002886236,0.019493351,-0.010689555,0.003449113,0.19661166,-0.076144237,0.008819378
-0.074753761,-0.195553645,-0.977839768,-0.002241962,-0.0038784,0.007579148,0.004588556,-0.004067276,0.002378468,0.196821967,-0.076299452,0.008842268
-0.074753761,-0.195553645,-0.977839768,-0.002241962,-0.0038784,0.007579148,0.004588556,-0.004067276,0.002378468,0.196821967,-0.076299452,0.008842268
-0.074753761,-0.195553645,-0.977839768,-0.002241962,-0.0038784,0.007579148,0.004588556,-0.004067276,0.002378468,0.196821967,-0.076299452,0.008842268
-0.074753761,-0.195553645,-0.977839768,-0.002241962,-0.0038784,0.007579148,0.004588556,-0.004067276,0.002378468,0.196821967,-0.076299452,0.008842268
-0.074845761,-0.195334315,-0.977876604,0.003923059,-0.002266645,0.010087848,-0.009058733,-0.009116751,-0.008935384,0.196598315,-0.076390132,0.008830328
-0.074845761,-0.195334315,-0.977876604,0.003923059,-0.002266645,0.010087848,-0.009058733,-0.009116751,-0.008935384,0.196598315,-0.076390132,0.008830328
-0.074845761,-0.195334315,-0.977876604,0.003923059,-0.002266645,0.010087848,-0.009058733,-0.009116751,-0.008935384,0.196598315,-0.076390132,0.008830328
-0.074845761,-0.195334315,-0.977876604,0.003923059,-0.002266645,0.010087848,-0.009058733,-0.009116751,-0.008935384,0.196598315,-0.076390132,0.008830328
-0.074845761,-0.195334315,-0.977876604,0.003923059,-0.002266645,0.010087848,-0.009058733,-0.009116751,-0.008935384,0.196598315,-0.076390132,0.008830328
-0.07504005,-0.19503288,-0.977921844,-0.000109345,-0.00320895,0.01211679,-0.005234486,-0.012454806,-0.00821042,0.196290977,-0.076584121,0.008638563
-0.07504005,-0.19503288,-0.977921844,-0.000109345,-0.00320895,0.01211679,-0.005234486,-0.012454806,-0.00821042,0.196290977,-0.076584121,0.008638563
-0.07504005,-0.19503288,-0.977921844,-0.000109345,-0.00320895,0.01211679,-0.005234486,-0.012454806,-0.00821042,0.196290977,-0.076584121,0.008638563
-0.07504005,-0.19503288,-0.977921844,-0.000109345,-0.00320895,0.01211679,-0.005234486,-0.012454806,-0.00821042,0.196290977,-0.076584121,0.008638563
-0.07504005,-0.19503288,-0.977921844,-0.000109345,-0.00320895,0.01211679,-0.005234486,-0.012454806,-0.00821042,0.196290977,-0.076584121,0.008638563
-0.07504005,-0.19503288,-0.977921844,-0.000109345,-0.00320895,0.01211679,-0.005234486,-0.012454806,-0.00821042,0.196290977,-0.076584121,0.008638563
-0.075118169,-0.19485493,-0.977951348,0.005080484,0.008911744,0.009231806,0.012729706,-0.012902821,-0.009420933,0.196109546,-0.076661236,0.008468379
-0.075118169,-0.19485493,-0.977951348,0.005080484,0.008911744,0.009231806,0.012729706,-0.012902821,-0.009420933,0.196109546,-0.076661236,0.008468379
-0.075118169,-0.19485493,-0.977951348,0.005080484,0.008911744,0.009231806,0.012729706,-0.012902821,-0.009420933,0.196109546,-0.076661236,0.008468379
-0.075272463,-0.195534542,-0.977803826,-0.000533037,0.008630052,0.011174738,0.036109425,-0.007389267,-0.004338449,0.196802482,-0.076829625,0.008365769
-0.075272463,-0.195534542,-0.977803826,-0.000533037,0.008630052,0.011174738,0.036109425,-0.007389267,-0.004338449,0.196802482,-0.076829625,0.008365769
-0.075324245,-0.196115837,-0.977683425,0.003409736,0.0025585,0.005881608,0.008749999,-0.001253247,0.003902276,0.197395251,-0.076891703,0.008420343
-0.075324245,-0.196115837,-0.977683425,0.003409736,0.0025585,0.005881608,0.008749999,-0.001253247,0.003902276,0.197395251,-0.076891703,0.008420343
-0.075324245,-0.196115837,-0.977683425,0.003409736,0.0025585,0.005881608,0.008749999,-0.001253247,0.003902276,0.197395251,-0.076891703,0.008420343
-0.075324245,-0.196115837,-0.977683425,0.003409736,0.0025585,0.005881608,0.008749999,-0.001253247,0.003902276,0.197395251,-0.076891703,0.008420343
-0.075282209,-0.196228936,-0.977663934,-0.002674766,-0.006788805,0.007433772,-0.01028171,0.006171294,0.010671659,0.197510599,-0.076850482,0.008586069
-0.075282209,-0.196228936,-0.977663934,-0.002674766,-0.006788805,0.007433772,-0.01028171,0.006171294,0.010671659,0.197510599,-0.076850482,0.008586069
-0.075282209,-0.196228936,-0.977663934,-0.002674766,-0.006788805,0.007433772,-0.01028171,0.006171294,0.010671659,0.197510599,-0.076850482,0.008586069
-0.075282209,-0.196228936,-0.977663934,-0.002674766,-0.006788805,0.007433772,-0.01028171,0.006171294,0.010671659,0.197510599,-0.076850482,0.008586069
-0.075282209,-0.196228936,-0.977663934,-0.002674766,-0.006788805,0.007433772,-0.01028171,0.006171294,0.010671659,0.197510599,-0.076850482,0.008586069
-0.075061627,-0.195569023,-0.977813125,0.001102448,-0.005159885,0.01290828,-0.027426127,0.005567508,0.018089946,0.19683765,-0.076614538,0.008896545
-0.075061627,-0.195569023,-0.977813125,0.001102448,-0.005159885,0.01290828,-0.027426127,0.005567508,0.018089946,0.19683765,-0.076614538,0.008896545
-0.075061627,-0.195569023,-0.977813125,0.001102448,-0.005159885,0.01290828,-0.027426127,0.005567508,0.018089946,0.19683765,-0.076614538,0.008896545
-0.075061627,-0.195569023,-0.977813125,0.001102448,-0.005159885,0.01290828,-0.027426127,0.005567508,0.018089946,0.19683765,-0.076614538,0.008896545
-0.075061627,-0.195569023,-0.977813125,0.001102448,-0.005159885,0.01290828,-0.027426127,0.005567508,0.018089946,0.19683765,-0.076614538,0.008896545
-0.075061627,-0.195569023,-0.977813125,0.001102448,-0.005159885,0.01290828,-0.027426127,0.005567508,0.018089946,0.19683765,-0.076614538,0.008896545
-0.07522127,-0.195137143,-0.977887154,0.000499174,0.017189637,0.009121835,0.02388184,-0.013469918,0.0031551,0.196397274,-0.076771063,0.009023831
-0.07522127,-0.195137143,-0.977887154,0.000499174,0.017189637,0.009121835,0.02388184,-0.013469918,0.0031551,0.196397274,-0.076771063,0.009023831
-0.07522127,-0.195137143,-0.977887154,0.000499174,0.017189637,0.009121835,0.02388184,-0.013469918,0.0031551,0.196397274,-0.076771063,0.009023831
-0.075625807,-0.19722423,-0.977437139,0.002368554,-0.00393188,0.00728327,0.001143198,-0.002684346,0.000351696,0.198525721,-0.077217691,0.008815508
-0.075625807,-0.19722423,-0.977437139,0.002368554,-0.00393188,0.00728327,0.001143198,-0.002684346,0.000351696,0.198525721,-0.077217691,0.008815508
-0.075625807,-0.19722423,-0.977437139,0.002368554,-0.00393188,0.00728327,0.001143198,-0.002684346,0.000351696,0.198525721,-0.077217691,0.008815508
-0.075645506,-0.196759149,-0.977529347,0.00174737,-0.004366502,0.009664297,-0.00312774,0.002021412,0.006178587,0.198051352,-0.07723047,0.008848678
-0.075645506,-0.196759149,-0.977529347,0.00174737,-0.004366502,0.009664297,-0.00312774,0.002021412,0.006178587,0.198051352,-0.07723047,0.008848678
-0.075645506,-0.196759149,-0.977529347,0.00174737,-0.004366502,0.009664297,-0.00312774,0.002021412,0.006178587,0.198051352,-0.07723047,0.008848678
-0.075845346,-0.196528569,-0.977560222,0.005075261,0.007564172,0.008871198,0.006873535,-0.010743688,-0.003073874,0.197816174,-0.077431248,0.008903249
-0.075845346,-0.196528569,-0.977560222,0.005075261,0.007564172,0.008871198,0.006873535,-0.010743688,-0.003073874,0.197816174,-0.077431248,0.008903249
-0.076082602,-0.196841776,-0.977478802,0.000368662,0.004566237,0.010437727,0.019325158,-0.007663295,-0.003051716,0.198135631,-0.077678935,0.008899856
-0.076082602,-0.196841776,-0.977478802,0.000368662,0.004566237,0.010437727,0.019325158,-0.007663295,-0.003051716,0.198135631,-0.077678935,0.008899856
-0.076082602,-0.196841776,-0.977478802,0.000368662,0.004566237,0.010437727,0.019325158,-0.007663295,-0.003051716,0.198135631,-0.077678935,0.008899856
-0.076082602,-0.196841776,-0.977478802,0.000368662,0.004566237,0.010437727,0.019325158,-0.007663295,-0.003051716,0.198135631,-0.077678935,0.008899856
-0.076082602,-0.196841776,-0.977478802,0.000368662,0.004566237,0.010437727,0.019325158,-0.007663295,-0.003051716,0.198135631,-0.077678935,0.008899856
-0.076082602,-0.196841776,-0.977478802,0.000368662,0.004566237,0.010437727,0.019325158,-0.007663295,-0.003051716,0.198135631,-0.077678935,0.008899856
-0.076178364,-0.197512373,-0.977336049,0.000891671,0.007693499,0.010859549,0.031520557,-0.018549412,-0.004897341,0.198819651,-0.077787625,0.008876692
-0.076178364,-0.197512373,-0.977336049,0.000891671,0.007693499,0.010859549,0.031520557,-0.018549412,-0.004897341,0.198819651,-0.077787625,0.008876692
-0.076178364,-0.197512373,-0.977336049,0.000891671,0.007693499,0.010859549,0.031520557,-0.018549412,-0.004897341,0.198819651,-0.077787625,0.008876692
-0.076178364,-0.197512373,-0.977336049,0.000891671,0.007693499,0.010859549,0.031520557,-0.018549412,-0.004897341,0.198819651,-0.077787625,0.008876692
-0.076178364,-0.197512373,-0.977336049,0.000891671,0.007693499,0.010859549,0.031520557,-0.018549412,-0.004897341,0.198819651,-0.077787625,0.008876692
-0.07632184,-0.198174149,-0.977190852,0.000760488,-0.000128612,0.011462033,0.024688166,-0.00650057,-0.009537047,0.199494768,-0.077945071,0.008855322
-0.07632184,-0.198174149,-0.977190852,0.000760488,-0.000128612,0.011462033,0.024688166,-0.00650057,-0.009537047,0.199494768,-0.077945071,0.008855322
-0.07632184,-0.198174149,-0.977190852,0.000760488,-0.000128612,0.011462033,0.024688166,-0.00650057,-0.009537047,0.199494768,-0.077945071,0.008855322
-0.076285742,-0.198410094,-0.977145791,0.005225763,-0.003920928,0.007144511,0.011937084,-0.003807025,-0.001944108,0.199735496,-0.077911933,0.008696115
-0.076285742,-0.198410094,-0.977145791,0.005225763,-0.003920928,0.007144511,0.011937084,-0.003807025,-0.001944108,0.199735496,-0.077911933,0.008696115
-0.076285742,-0.198410094,-0.977145791,0.005225763,-0.003920928,0.007144511,0.011937084,-0.003807025,-0.001944108,0.199735496,-0.077911933,0.008696115
-0.076285742,-0.198410094,-0.977145791,0.005225763,-0.003920928,0.007144511,0.011937084,-0.003807025,-0.001944108,0.199735496,-0.077911933,0.008696115
-0.076285742,-0.198410094,-0.977145791,0.005225763,-0.003920928,0.007144511,0.011937084,-0.003807025,-0.001944108,0.199735496,-0.077911933,0.008696115
-0.076285742,-0.198410094,-0.977145791,0.005225763,-0.003920928,0.007144511,0.011937084,-0.003807025,-0.001944108,0.199735496,-0.077911933,0.008696115
-0.076333538,-0.198476598,-0.977128565,0.002404884,-0.0004365,0.007997036,0.005196623,-9.86E-05,0.001557682,0.199803358,-0.07796192,0.008713572
-0.076333538,-0.198476598,-0.977128565,0.002404884,-0.0004365,0.007997036,0.005196623,-9.86E-05,0.001557682,0.199803358,-0.07796192,0.008713572
-0.076333538,-0.198476598,-0.977128565,0.002404884,-0.0004365,0.007997036,0.005196623,-9.86E-05,0.001557682,0.199803358,-0.07796192,0.008713572
-0.076361872,-0.198410869,-0.977139711,0.000434302,0.001038849,0.00916785,0.006436764,-0.001984951,0.005782948,0.19973629,-0.077989861,0.008819391
-0.076361872,-0.198410869,-0.977139711,0.000434302,0.001038849,0.00916785,0.006436764,-0.001984951,0.005782948,0.19973629,-0.077989861,0.008819391
-0.076361872,-0.198410869,-0.977139711,0.000434302,0.001038849,0.00916785,0.006436764,-0.001984951,0.005782948,0.19973629,-0.077989861,0.008819391
-0.076361872,-0.198410869,-0.977139711,0.000434302,0.001038849,0.00916785,0.006436764,-0.001984951,0.005782948,0.19973629,-0.077989861,0.008819391
-0.076361872,-0.198410869,-0.977139711,0.000434302,0.001038849,0.00916785,0.006436764,-0.001984951,0.005782948,0.19973629,-0.077989861,0.008819391
-0.076361872,-0.198410869,-0.977139711,0.000434302,0.001038849,0.00916785,0.006436764,-0.001984951,0.005782948,0.19973629,-0.077989861,0.008819391
-0.076361872,-0.198410869,-0.977139711,0.000434302,0.001038849,0.00916785,0.006436764,-0.001984951,0.005782948,0.19973629,-0.077989861,0.008819391
-0.076371029,-0.198546082,-0.977111518,-0.000182159,0.002944082,0.008117318,0.011618783,-0.002053213,0.004604126,0.19987425,-0.07800141,0.008902357
-0.076371029,-0.198546082,-0.977111518,-0.000182159,0.002944082,0.008117318,0.011618783,-0.002053213,0.004604126,0.19987425,-0.07800141,0.008902357
-0.076371029,-0.198546082,-0.977111518,-0.000182159,0.002944082,0.008117318,0.011618783,-0.002053213,0.004604126,0.19987425,-0.07800141,0.008902357
-0.076371029,-0.198546082,-0.977111518,-0.000182159,0.002944082,0.008117318,0.011618783,-0.002053213,0.004604126,0.19987425,-0.07800141,0.008902357
-0.076477751,-0.198917776,-0.977027595,-0.000426389,0.005619854,0.010383248,0.018978015,-0.012313949,-0.00500115,0.200253512,-0.078116653,0.008916978
-0.076477751,-0.198917776,-0.977027595,-0.000426389,0.005619854,0.010383248,0.018978015,-0.012313949,-0.00500115,0.200253512,-0.078116653,0.008916978
-0.076477751,-0.198917776,-0.977027595,-0.000426389,0.005619854,0.010383248,0.018978015,-0.012313949,-0.00500115,0.200253512,-0.078116653,0.008916978
-0.076477751,-0.198917776,-0.977027595,-0.000426389,0.005619854,0.010383248,0.018978015,-0.012313949,-0.00500115,0.200253512,-0.078116653,0.008916978
-0.076477751,-0.198917776,-0.977027595,-0.000426389,0.005619854,0.010383248,0.018978015,-0.012313949,-0.00500115,0.200253512,-0.078116653,0.008916978
-0.076477751,-0.198917776,-0.977027595,-0.000426389,0.005619854,0.010383248,0.018978015,-0.012313949,-0.00500115,0.200253512,-0.078116653,0.008916978
-0.076477751,-0.198917776,-0.977027595,-0.000426389,0.005619854,0.010383248,0.018978015,-0.012313949,-0.00500115,0.200253512,-0.078116653,0.008916978
-0.076569639,-0.199223235,-0.976958156,0.002030618,-0.000834331,0.009596646,0.008731863,-0.006922584,-0.002240944,0.200565195,-0.07821567,0.008845378
-0.076569639,-0.199223235,-0.976958156,0.002030618,-0.000834331,0.009596646,0.008731863,-0.006922584,-0.002240944,0.200565195,-0.07821567,0.008845378
-0.076569639,-0.199223235,-0.976958156,0.002030618,-0.000834331,0.009596646,0.008731863,-0.006922584,-0.002240944,0.200565195,-0.07821567,0.008845378
-0.076569639,-0.199223235,-0.976958156,0.002030618,-0.000834331,0.009596646,0.008731863,-0.006922584,-0.002240944,0.200565195,-0.07821567,0.008845378
-0.076569639,-0.199223235,-0.976958156,0.002030618,-0.000834331,0.009596646,0.008731863,-0.006922584,-0.002240944,0.200565195,-0.07821567,0.008845378
-0.076569639,-0.199223235,-0.976958156,0.002030618,-0.000834331,0.009596646,0.008731863,-0.006922584,-0.002240944,0.200565195,-0.07821567,0.008845378
-0.07660418,-0.199355215,-0.976928473,0.000310414,-0.004013449,0.011413336,0.005504484,0.001239931,0.003953196,0.200699881,-0.078253172,0.008865049
-0.07660418,-0.199355215,-0.976928473,0.000310414,-0.004013449,0.011413336,0.005504484,0.001239931,0.003953196,0.200699881,-0.078253172,0.008865049
-0.07660418,-0.199355215,-0.976928473,0.000310414,-0.004013449,0.011413336,0.005504484,0.001239931,0.003953196,0.200699881,-0.078253172,0.008865049
-0.07660418,-0.199355215,-0.976928473,0.000310414,-0.004013449,0.011413336,0.005504484,0.001239931,0.003953196,0.200699881,-0.078253172,0.008865049
-0.07660418,-0.199355215,-0.976928473,0.000310414,-0.004013449,0.011413336,0.005504484,0.001239931,0.003953196,0.200699881,-0.078253172,0.008865049
-0.07660418,-0.199355215,-0.976928473,0.000310414,-0.004013449,0.011413336,0.005504484,0.001239931,0.003953196,0.200699881,-0.078253172,0.008865049
-0.07660418,-0.199355215,-0.976928473,0.000310414,-0.004013449,0.011413336,0.005504484,0.001239931,0.003953196,0.200699881,-0.078253172,0.008865049
-0.07660418,-0.199355215,-0.976928473,0.000310414,-0.004013449,0.011413336,0.005504484,0.001239931,0.003953196,0.200699881,-0.078253172,0.008865049
-0.076597504,-0.19936119,-0.976927817,0.000959866,0.002782673,0.010741234,0.002377068,-0.000163566,0.001908422,0.200705975,-0.078246431,0.008939463
-0.076597504,-0.19936119,-0.976927817,0.000959866,0.002782673,0.010741234,0.002377068,-0.000163566,0.001908422,0.200705975,-0.078246431,0.008939463
-0.076597504,-0.19936119,-0.976927817,0.000959866,0.002782673,0.010741234,0.002377068,-0.000163566,0.001908422,0.200705975,-0.078246431,0.008939463
-0.076597504,-0.19936119,-0.976927817,0.000959866,0.002782673,0.010741234,0.002377068,-0.000163566,0.001908422,0.200705975,-0.078246431,0.008939463
-0.076597504,-0.19936119,-0.976927817,0.000959866,0.002782673,0.010741234,0.002377068,-0.000163566,0.001908422,0.200705975,-0.078246431,0.008939463
-0.076597504,-0.19936119,-0.976927817,0.000959866,0.002782673,0.010741234,0.002377068,-0.000163566,0.001908422,0.200705975,-0.078246431,0.008939463
-0.076616988,-0.199333742,-0.97693187,0.000216395,-9.82E-05,0.008776963,0.001632608,-0.002233037,-0.00905331,0.200677974,-0.078265932,0.008942424
-0.076616988,-0.199333742,-0.97693187,0.000216395,-9.82E-05,0.008776963,0.001632608,-0.002233037,-0.00905331,0.200677974,-0.078265932,0.008942424
-0.076667272,-0.199646354,-0.9768641,0.000922821,0.001694545,0.00924319,0.005963293,-0.006289721,-0.010923701,0.200996992,-0.078322502,0.008617435
-0.076667272,-0.199646354,-0.9768641,0.000922821,0.001694545,0.00924319,0.005963293,-0.006289721,-0.010923701,0.200996992,-0.078322502,0.008617435
-0.076667272,-0.199646354,-0.9768641,0.000922821,0.001694545,0.00924319,0.005963293,-0.006289721,-0.010923701,0.200996992,-0.078322502,0.008617435
-0.076765493,-0.199853748,-0.976813972,0.002730027,0.003534645,0.008964181,0.009333964,-0.006998401,-0.008954667,0.201208658,-0.078426436,0.008413188
-0.076765493,-0.199853748,-0.976813972,0.002730027,0.003534645,0.008964181,0.009333964,-0.006998401,-0.008954667,0.201208658,-0.078426436,0.008413188
-0.076765493,-0.199853748,-0.976813972,0.002730027,0.003534645,0.008964181,0.009333964,-0.006998401,-0.008954667,0.201208658,-0.078426436,0.008413188
-0.076991826,-0.200057879,-0.976754367,-0.002262123,-0.002395228,0.009453893,-0.011463234,0.005276629,0.002173991,0.201416996,-0.078661497,0.008380107
-0.076991826,-0.200057879,-0.976754367,-0.002262123,-0.002395228,0.009453893,-0.011463234,0.005276629,0.002173991,0.201416996,-0.078661497,0.008380107
-0.076991826,-0.200057879,-0.976754367,-0.002262123,-0.002395228,0.009453893,-0.011463234,0.005276629,0.002173991,0.201416996,-0.078661497,0.008380107
-0.076903857,-0.199837729,-0.976806343,-0.000732683,0.001794368,0.009414375,-0.009179546,0.002269486,0.003418061,0.2011923,-0.078567823,0.008433014
-0.076903857,-0.199837729,-0.976806343,-0.000732683,0.001794368,0.009414375,-0.009179546,0.002269486,0.003418061,0.2011923,-0.078567823,0.008433014
-0.076903857,-0.199837729,-0.976806343,-0.000732683,0.001794368,0.009414375,-0.009179546,0.002269486,0.003418061,0.2011923,-0.078567823,0.008433014
-0.076867513,-0.199605629,-0.976856709,-0.00249327,0.004751369,0.010151327,0.001374015,-0.002256956,-0.01453303,0.200955441,-0.078526819,0.008524727
-0.076867513,-0.199605629,-0.976856709,-0.00249327,0.004751369,0.010151327,0.001374015,-0.002256956,-0.01453303,0.200955441,-0.078526819,0.008524727
-0.076867513,-0.199605629,-0.976856709,-0.00249327,0.004751369,0.010151327,0.001374015,-0.002256956,-0.01453303,0.200955441,-0.078526819,0.008524727
-0.076803654,-0.199700162,-0.976842403,-0.001580566,0.002801225,0.011983335,0.006179063,0.004400353,-0.006938067,0.201051912,-0.078462995,0.008285111
-0.076803654,-0.199700162,-0.976842403,-0.001580566,0.002801225,0.011983335,0.006179063,0.004400353,-0.006938067,0.201051912,-0.078462995,0.008285111
-0.076803654,-0.199700162,-0.976842403,-0.001580566,0.002801225,0.011983335,0.006179063,0.004400353,-0.006938067,0.201051912,-0.078462995,0.008285111
-0.076745979,-0.200388312,-0.976705968,0.005212978,0.001551554,0.008856177,0.013336548,-0.004750099,0.000978606,0.201754259,-0.07841522,0.008155455
-0.076745979,-0.200388312,-0.976705968,0.005212978,0.001551554,0.008856177,0.013336548,-0.004750099,0.000978606,0.201754259,-0.07841522,0.008155455
-0.076745979,-0.200388312,-0.976705968,0.005212978,0.001551554,0.008856177,0.013336548,-0.004750099,0.000978606,0.201754259,-0.07841522,0.008155455
-0.076958545,-0.200366139,-0.976693809,0.006295294,-0.00501664,0.006433129,-0.011179274,-0.006136552,0.003112489,0.20173163,-0.07863249,0.008211872
-0.076958545,-0.200366139,-0.976693809,0.006295294,-0.00501664,0.006433129,-0.011179274,-0.006136552,0.003112489,0.20173163,-0.07863249,0.008211872
-0.076958545,-0.200366139,-0.976693809,0.006295294,-0.00501664,0.006433129,-0.011179274,-0.006136552,0.003112489,0.20173163,-0.07863249,0.008211872
-0.076958545,-0.200366139,-0.976693809,0.006295294,-0.00501664,0.006433129,-0.011179274,-0.006136552,0.003112489,0.20173163,-0.07863249,0.008211872
-0.076958545,-0.200366139,-0.976693809,0.006295294,-0.00501664,0.006433129,-0.011179274,-0.006136552,0.003112489,0.20173163,-0.07863249,0.008211872
-0.077072732,-0.199959308,-0.976768196,0.001099408,-0.004843667,0.010810494,-0.018664287,-0.00398524,9.38E-05,0.201316397,-0.07874271,0.008220615
-0.077072732,-0.199959308,-0.976768196,0.001099408,-0.004843667,0.010810494,-0.018664287,-0.00398524,9.38E-05,0.201316397,-0.07874271,0.008220615
-0.077072732,-0.199959308,-0.976768196,0.001099408,-0.004843667,0.010810494,-0.018664287,-0.00398524,9.38E-05,0.201316397,-0.07874271,0.008220615
-0.077072732,-0.199959308,-0.976768196,0.001099408,-0.004843667,0.010810494,-0.018664287,-0.00398524,9.38E-05,0.201316397,-0.07874271,0.008220615
-0.077072732,-0.199959308,-0.976768196,0.001099408,-0.004843667,0.010810494,-0.018664287,-0.00398524,9.38E-05,0.201316397,-0.07874271,0.008220615
-0.077072732,-0.199959308,-0.976768196,0.001099408,-0.004843667,0.010810494,-0.018664287,-0.00398524,9.38E-05,0.201316397,-0.07874271,0.008220615
-0.077105664,-0.199667349,-0.976825297,0.000705086,0.003683925,0.010974407,-0.003284267,-0.004031579,0.00265549,0.201018418,-0.078771623,0.00822216
-0.077105664,-0.199667349,-0.976825297,0.000705086,0.003683925,0.010974407,-0.003284267,-0.004031579,0.00265549,0.201018418,-0.078771623,0.00822216
-0.076992445,-0.200225294,-0.976720035,-0.000552535,-0.00654608,0.008702397,-0.012268348,0.009623574,0.002892619,0.20158787,-0.078664885,0.008128005
-0.076992445,-0.200225294,-0.976720035,-0.000552535,-0.00654608,0.008702397,-0.012268348,0.009623574,0.002892619,0.20158787,-0.078664885,0.008128005
-0.076992445,-0.200225294,-0.976720035,-0.000552535,-0.00654608,0.008702397,-0.012268348,0.009623574,0.002892619,0.20158787,-0.078664885,0.008128005
-0.076882094,-0.199999169,-0.97677505,0.001091868,0.002749279,0.009001553,-0.004685835,0.002657096,0.005123389,0.201357067,-0.07854819,0.008195191
-0.076882094,-0.199999169,-0.97677505,0.001091868,0.002749279,0.009001553,-0.004685835,0.002657096,0.005123389,0.201357067,-0.07854819,0.008195191
-0.076882094,-0.199999169,-0.97677505,0.001091868,0.002749279,0.009001553,-0.004685835,0.002657096,0.005123389,0.201357067,-0.07854819,0.008195191
-0.076882094,-0.199999169,-0.97677505,0.001091868,0.002749279,0.009001553,-0.004685835,0.002657096,0.005123389,0.201357067,-0.07854819,0.008195191
-0.076882094,-0.199999169,-0.97677505,0.001091868,0.002749279,0.009001553,-0.004685835,0.002657096,0.005123389,0.201357067,-0.07854819,0.008195191
-0.076966524,-0.199875414,-0.976793706,0.002976842,0.005295813,0.010408759,0.003432052,-0.002600819,-0.001238743,0.201230768,-0.078632598,0.008259495
-0.076966524,-0.199875414,-0.976793706,0.002976842,0.005295813,0.010408759,0.003432052,-0.002600819,-0.001238743,0.201230768,-0.078632598,0.008259495
-0.076966524,-0.199875414,-0.976793706,0.002976842,0.005295813,0.010408759,0.003432052,-0.002600819,-0.001238743,0.201230768,-0.078632598,0.008259495
-0.076966524,-0.199875414,-0.976793706,0.002976842,0.005295813,0.010408759,0.003432052,-0.002600819,-0.001238743,0.201230768,-0.078632598,0.008259495
-0.076966524,-0.199875414,-0.976793706,0.002976842,0.005295813,0.010408759,0.003432052,-0.002600819,-0.001238743,0.201230768,-0.078632598,0.008259495
-0.076966524,-0.199875414,-0.976793706,0.002976842,0.005295813,0.010408759,0.003432052,-0.002600819,-0.001238743,0.201230768,-0.078632598,0.008259495
-0.077080026,-0.200085431,-0.976741791,0.000526868,0.005429536,0.008739412,0.017262433,-0.007842356,-0.008782201,0.201445117,-0.078752251,0.008150332
-0.077080026,-0.200085431,-0.976741791,0.000526868,0.005429536,0.008739412,0.017262433,-0.007842356,-0.008782201,0.201445117,-0.078752251,0.008150332
-0.077080026,-0.200085431,-0.976741791,0.000526868,0.005429536,0.008739412,0.017262433,-0.007842356,-0.008782201,0.201445117,-0.078752251,0.008150332
-0.077080026,-0.200085431,-0.976741791,0.000526868,0.005429536,0.008739412,0.017262433,-0.007842356,-0.008782201,0.201445117,-0.078752251,0.008150332
-0.077193789,-0.20049493,-0.976648808,0.001724005,-0.000142425,0.012018621,0.015883207,-0.008961586,-0.003987871,0.201863078,-0.078875475,0.008044253
-0.077193789,-0.20049493,-0.976648808,0.001724005,-0.000142425,0.012018621,0.015883207,-0.008961586,-0.003987871,0.201863078,-0.078875475,0.008044253
-0.077193789,-0.20049493,-0.976648808,0.001724005,-0.000142425,0.012018621,0.015883207,-0.008961586,-0.003987871,0.201863078,-0.078875475,0.008044253
-0.077193789,-0.20049493,-0.976648808,0.001724005,-0.000142425,0.012018621,0.015883207,-0.008961586,-0.003987871,0.201863078,-0.078875475,0.008044253
-0.077193789,-0.20049493,-0.976648808,0.001724005,-0.000142425,0.012018621,0.015883207,-0.008961586,-0.003987871,0.201863078,-0.078875475,0.008044253
-0.077193789,-0.20049493,-0.976648808,0.001724005,-0.000142425,0.012018621,0.015883207,-0.008961586,-0.003987871,0.201863078,-0.078875475,0.008044253
-0.077349171,-0.2007934,-0.976575196,0.003145881,0.00361985,0.009824038,0.011823699,-0.00747973,-0.003493801,0.202167747,-0.079039515,0.007979627
-0.077349171,-0.2007934,-0.976575196,0.003145881,0.00361985,0.009824038,0.011823699,-0.00747973,-0.003493801,0.202167747,-0.079039515,0.007979627
-0.077349171,-0.2007934,-0.976575196,0.003145881,0.00361985,0.009824038,0.011823699,-0.00747973,-0.003493801,0.202167747,-0.079039515,0.007979627
-0.077349171,-0.2007934,-0.976575196,0.003145881,0.00361985,0.009824038,0.011823699,-0.00747973,-0.003493801,0.202167747,-0.079039515,0.007979627
-0.077349171,-0.2007934,-0.976575196,0.003145881,0.00361985,0.009824038,0.011823699,-0.00747973,-0.003493801,0.202167747,-0.079039515,0.007979627
-0.077349171,-0.2007934,-0.976575196,0.003145881,0.00361985,0.009824038,0.011823699,-0.00747973,-0.003493801,0.202167747,-0.079039515,0.007979627
-0.077349171,-0.2007934,-0.976575196,0.003145881,0.00361985,0.009824038,0.011823699,-0.00747973,-0.003493801,0.202167747,-0.079039515,0.007979627
-0.077349171,-0.2007934,-0.976575196,0.003145881,0.00361985,0.009824038,0.011823699,-0.00747973,-0.003493801,0.202167747,-0.079039515,0.007979627
-0.077430382,-0.200684786,-0.97659111,0.001502842,-0.00291273,0.006391466,-0.011082055,-0.00397282,-0.003314464,0.202056877,-0.079120871,0.007962009
-0.077430382,-0.200684786,-0.97659111,0.001502842,-0.00291273,0.006391466,-0.011082055,-0.00397282,-0.003314464,0.202056877,-0.079120871,0.007962009
-0.077430382,-0.200684786,-0.97659111,0.001502842,-0.00291273,0.006391466,-0.011082055,-0.00397282,-0.003314464,0.202056877,-0.079120871,0.007962009
-0.077430382,-0.200684786,-0.97659111,0.001502842,-0.00291273,0.006391466,-0.011082055,-0.00397282,-0.003314464,0.202056877,-0.079120871,0.007962009
-0.077430382,-0.200684786,-0.97659111,0.001502842,-0.00291273,0.006391466,-0.011082055,-0.00397282,-0.003314464,0.202056877,-0.079120871,0.007962009
-0.077430382,-0.200684786,-0.97659111,0.001502842,-0.00291273,0.006391466,-0.011082055,-0.00397282,-0.003314464,0.202056877,-0.079120871,0.007962009
-0.077416092,-0.200441122,-0.976642251,-0.000540853,-0.001447394,0.013934672,-0.006947299,0.002250225,0.002572985,0.201808157,-0.079102207,0.007906974
-0.077416092,-0.200441122,-0.976642251,-0.000540853,-0.001447394,0.013934672,-0.006947299,0.002250225,0.002572985,0.201808157,-0.079102207,0.007906974
-0.077416092,-0.200441122,-0.976642251,-0.000540853,-0.001447394,0.013934672,-0.006947299,0.002250225,0.002572985,0.201808157,-0.079102207,0.007906974
-0.077416092,-0.200441122,-0.976642251,-0.000540853,-0.001447394,0.013934672,-0.006947299,0.002250225,0.002572985,0.201808157,-0.079102207,0.007906974
-0.077416092,-0.200441122,-0.976642251,-0.000540853,-0.001447394,0.013934672,-0.006947299,0.002250225,0.002572985,0.201808157,-0.079102207,0.007906974
-0.077416092,-0.200441122,-0.976642251,-0.000540853,-0.001447394,0.013934672,-0.006947299,0.002250225,0.002572985,0.201808157,-0.079102207,0.007906974
-0.077414364,-0.200524673,-0.976625264,0.001074843,0.007852465,0.010530233,0.015859094,-0.001715378,-0.002085628,0.201893447,-0.079101815,0.007932763
-0.077414364,-0.200524673,-0.976625264,0.001074843,0.007852465,0.010530233,0.015859094,-0.001715378,-0.002085628,0.201893447,-0.079101815,0.007932763
-0.077414364,-0.200524673,-0.976625264,0.001074843,0.007852465,0.010530233,0.015859094,-0.001715378,-0.002085628,0.201893447,-0.079101815,0.007932763
-0.077414364,-0.200524673,-0.976625264,0.001074843,0.007852465,0.010530233,0.015859094,-0.001715378,-0.002085628,0.201893447,-0.079101815,0.007932763
-0.077414364,-0.200524673,-0.976625264,0.001074843,0.007852465,0.010530233,0.015859094,-0.001715378,-0.002085628,0.201893447,-0.079101815,0.007932763
-0.077374689,-0.200956896,-0.976539552,0.001218259,0.005919546,0.009452701,0.0331873,0.002074276,-0.004275759,0.202334652,-0.079068356,0.007895014
-0.077374689,-0.200956896,-0.976539552,0.001218259,0.005919546,0.009452701,0.0331873,0.002074276,-0.004275759,0.202334652,-0.079068356,0.007895014
-0.077374689,-0.200956896,-0.976539552,0.001218259,0.005919546,0.009452701,0.0331873,0.002074276,-0.004275759,0.202334652,-0.079068356,0.007895014
-0.077374689,-0.200956896,-0.976539552,0.001218259,0.005919546,0.009452701,0.0331873,0.002074276,-0.004275759,0.202334652,-0.079068356,0.007895014
-0.077374689,-0.200956896,-0.976539552,0.001218259,0.005919546,0.009452701,0.0331873,0.002074276,-0.004275759,0.202334652,-0.079068356,0.007895014
-0.077374391,-0.201752916,-0.976375401,0.002637044,0.004091084,0.008586645,0.032768715,-0.005152467,-0.000953465,0.203147304,-0.079081288,0.007813503
-0.077374391,-0.201752916,-0.976375401,0.002637044,0.004091084,0.008586645,0.032768715,-0.005152467,-0.000953465,0.203147304,-0.079081288,0.007813503
-0.077374391,-0.201752916,-0.976375401,0.002637044,0.004091084,0.008586645,0.032768715,-0.005152467,-0.000953465,0.203147304,-0.079081288,0.007813503
-0.077374391,-0.201752916,-0.976375401,0.002637044,0.004091084,0.008586645,0.032768715,-0.005152467,-0.000953465,0.203147304,-0.079081288,0.007813503
-0.077374391,-0.201752916,-0.976375401,0.002637044,0.004091084,0.008586645,0.032768715,-0.005152467,-0.000953465,0.203147304,-0.079081288,0.007813503
-0.077497438,-0.20208247,-0.976297498,0.002943188,-0.006245241,0.009851515,-0.001596609,-0.007026823,-0.002295272,0.203483797,-0.079212817,0.007768231
-0.077497438,-0.20208247,-0.976297498,0.002943188,-0.006245241,0.009851515,-0.001596609,-0.007026823,-0.002295272,0.203483797,-0.079212817,0.007768231
-0.077497438,-0.20208247,-0.976297498,0.002943188,-0.006245241,0.009851515,-0.001596609,-0.007026823,-0.002295272,0.203483797,-0.079212817,0.007768231
-0.077497438,-0.20208247,-0.976297498,0.002943188,-0.006245241,0.009851515,-0.001596609,-0.007026823,-0.002295272,0.203483797,-0.079212817,0.007768231
-0.077497438,-0.20208247,-0.976297498,0.002943188,-0.006245241,0.009851515,-0.001596609,-0.007026823,-0.002295272,0.203483797,-0.079212817,0.007768231
-0.077497438,-0.20208247,-0.976297498,0.002943188,-0.006245241,0.009851515,-0.001596609,-0.007026823,-0.002295272,0.203483797,-0.079212817,0.007768231
-0.077497438,-0.20208247,-0.976297498,0.002943188,-0.006245241,0.009851515,-0.001596609,-0.007026823,-0.002295272,0.203483797,-0.079212817,0.007768231
-0.077569261,-0.201887295,-0.976332188,0.003274418,-0.001069337,0.010130346,-0.00277069,0.000603013,0.00300298,0.203284509,-0.079283121,0.007766147
-0.077569261,-0.201887295,-0.976332188,0.003274418,-0.001069337,0.010130346,-0.00277069,0.000603013,0.00300298,0.203284509,-0.079283121,0.007766147
-0.077569261,-0.201887295,-0.976332188,0.003274418,-0.001069337,0.010130346,-0.00277069,0.000603013,0.00300298,0.203284509,-0.079283121,0.007766147
-0.077569261,-0.201887295,-0.976332188,0.003274418,-0.001069337,0.010130346,-0.00277069,0.000603013,0.00300298,0.203284509,-0.079283121,0.007766147
-0.077569261,-0.201887295,-0.976332188,0.003274418,-0.001069337,0.010130346,-0.00277069,0.000603013,0.00300298,0.203284509,-0.079283121,0.007766147
-0.077569261,-0.201887295,-0.976332188,0.003274418,-0.001069337,0.010130346,-0.00277069,0.000603013,0.00300298,0.203284509,-0.079283121,0.007766147
-0.077569261,-0.201887295,-0.976332188,0.003274418,-0.001069337,0.010130346,-0.00277069,0.000603013,0.00300298,0.203284509,-0.079283121,0.007766147
-0.077569261,-0.201887295,-0.976332188,0.003274418,-0.001069337,0.010130346,-0.00277069,0.000603013,0.00300298,0.203284509,-0.079283121,0.007766147
-0.077569261,-0.201887295,-0.976332188,0.003274418,-0.001069337,0.010130346,-0.00277069,0.000603013,0.00300298,0.203284509,-0.079283121,0.007766147
-0.077581301,-0.20180504,-0.976348221,0.00105866,0.003837988,0.010054827,0.0045407,0.00018187,-0.002473757,0.203200536,-0.079294079,0.007793526
-0.077581301,-0.20180504,-0.976348221,0.00105866,0.003837988,0.010054827,0.0045407,0.00018187,-0.002473757,0.203200536,-0.079294079,0.007793526
-0.077581301,-0.20180504,-0.976348221,0.00105866,0.003837988,0.010054827,0.0045407,0.00018187,-0.002473757,0.203200536,-0.079294079,0.007793526
-0.07759618,-0.201908842,-0.976325572,0.002553664,0.004567444,0.010764599,0.009321114,-0.006048898,-9.57E-05,0.203306511,-0.079311057,0.007762731
-0.07759618,-0.201908842,-0.976325572,0.002553664,0.004567444,0.010764599,0.009321114,-0.006048898,-9.57E-05,0.203306511,-0.079311057,0.007762731
-0.07759618,-0.201908842,-0.976325572,0.002553664,0.004567444,0.010764599,0.009321114,-0.006048898,-9.57E-05,0.203306511,-0.079311057,0.007762731
-0.07759618,-0.201908842,-0.976325572,0.002553664,0.004567444,0.010764599,0.009321114,-0.006048898,-9.57E-05,0.203306511,-0.079311057,0.007762731
-0.077565566,-0.202158332,-0.976276398,-0.000162497,-0.00092037,0.010990083,-0.000863667,-0.004901174,-0.010463294,0.203561253,-0.079283873,0.007678444
-0.077565566,-0.202158332,-0.976276398,-0.000162497,-0.00092037,0.010990083,-0.000863667,-0.004901174,-0.010463294,0.203561253,-0.079283873,0.007678444
-0.077565566,-0.202158332,-0.976276398,-0.000162497,-0.00092037,0.010990083,-0.000863667,-0.004901174,-0.010463294,0.203561253,-0.079283873,0.007678444
-0.077561744,-0.202065945,-0.976295829,0.002183527,-0.004720643,0.009971917,-0.015157944,-0.000410818,-0.004844397,0.203466916,-0.079278411,0.007492558
-0.077561744,-0.202065945,-0.976295829,0.002183527,-0.004720643,0.009971917,-0.015157944,-0.000410818,-0.004844397,0.203466916,-0.079278411,0.007492558
-0.077561744,-0.202065945,-0.976295829,0.002183527,-0.004720643,0.009971917,-0.015157944,-0.000410818,-0.004844397,0.203466916,-0.079278411,0.007492558
-0.077551074,-0.201754138,-0.976361156,0.000540167,-0.000485316,0.012112439,-0.013396236,0.000212678,0.000488956,0.20314856,-0.07926227,0.007446071
-0.077551074,-0.201754138,-0.976361156,0.000540167,-0.000485316,0.012112439,-0.013396236,0.000212678,0.000488956,0.20314856,-0.07926227,0.007446071
-0.077551074,-0.201754138,-0.976361156,0.000540167,-0.000485316,0.012112439,-0.013396236,0.000212678,0.000488956,0.20314856,-0.07926227,0.007446071
-0.077545539,-0.201707914,-0.976371169,0.001144983,0.006609574,0.0117715,0.009218408,-0.001985919,0.001419518,0.203101365,-0.079255827,0.007441991
-0.077545539,-0.201707914,-0.976371169,0.001144983,0.006609574,0.0117715,0.009218408,-0.001985919,0.001419518,0.203101365,-0.079255827,0.007441991
-0.077545539,-0.201707914,-0.976371169,0.001144983,0.006609574,0.0117715,0.009218408,-0.001985919,0.001419518,0.203101365,-0.079255827,0.007441991
-0.077643938,-0.201958373,-0.976311564,0.002357274,0.004510164,0.009423077,0.005964212,-0.003732783,0.002518018,0.203357082,-0.0793608,0.007467901
-0.077643938,-0.201958373,-0.976311564,0.002357274,0.004510164,0.009423077,0.005964212,-0.003732783,0.002518018,0.203357082,-0.0793608,0.007467901
-0.077643938,-0.201958373,-0.976311564,0.002357274,0.004510164,0.009423077,0.005964212,-0.003732783,0.002518018,0.203357082,-0.0793608,0.007467901
-0.077643938,-0.201958373,-0.976311564,0.002357274,0.004510164,0.009423077,0.005964212,-0.003732783,0.002518018,0.203357082,-0.0793608,0.007467901
-0.077643938,-0.201958373,-0.976311564,0.002357274,0.004510164,0.009423077,0.005964212,-0.003732783,0.002518018,0.203357082,-0.0793608,0.007467901
-0.077691436,-0.201939225,-0.976311743,0.001367182,-0.001658276,0.006829262,-0.025319448,0.000564796,0.000220883,0.203337536,-0.079409133,0.007477672
-0.077691436,-0.201939225,-0.976311743,0.001367182,-0.001658276,0.006829262,-0.025319448,0.000564796,0.000220883,0.203337536,-0.079409133,0.007477672
-0.077691436,-0.201939225,-0.976311743,0.001367182,-0.001658276,0.006829262,-0.025319448,0.000564796,0.000220883,0.203337536,-0.079409133,0.007477672
-0.077691436,-0.201939225,-0.976311743,0.001367182,-0.001658276,0.006829262,-0.025319448,0.000564796,0.000220883,0.203337536,-0.079409133,0.007477672
-0.077691436,-0.201939225,-0.976311743,0.001367182,-0.001658276,0.006829262,-0.025319448,0.000564796,0.000220883,0.203337536,-0.079409133,0.007477672
-0.077691436,-0.201939225,-0.976311743,0.001367182,-0.001658276,0.006829262,-0.025319448,0.000564796,0.000220883,0.203337536,-0.079409133,0.007477672
-0.077691436,-0.201939225,-0.976311743,0.001367182,-0.001658276,0.006829262,-0.025319448,0.000564796,0.000220883,0.203337536,-0.079409133,0.007477672
-0.077669241,-0.201339155,-0.976437449,0.002672471,-0.004440397,0.009182751,-0.038291056,0.002855006,0.008604993,0.202724887,-0.07937636,0.007526571
-0.077669241,-0.201339155,-0.976437449,0.002672471,-0.004440397,0.009182751,-0.038291056,0.002855006,0.008604993,0.202724887,-0.07937636,0.007526571
-0.077669241,-0.201339155,-0.976437449,0.002672471,-0.004440397,0.009182751,-0.038291056,0.002855006,0.008604993,0.202724887,-0.07937636,0.007526571
-0.077669241,-0.201339155,-0.976437449,0.002672471,-0.004440397,0.009182751,-0.038291056,0.002855006,0.008604993,0.202724887,-0.07937636,0.007526571
-0.077606931,-0.200641379,-0.976585984,0.003785096,0.000843257,0.012764513,-0.027767384,0.005504924,-0.003524961,0.202012571,-0.079300937,0.007481415
-0.077606931,-0.200641379,-0.976585984,0.003785096,0.000843257,0.012764513,-0.027767384,0.005504924,-0.003524961,0.202012571,-0.079300937,0.007481415
-0.077606931,-0.200641379,-0.976585984,0.003785096,0.000843257,0.012764513,-0.027767384,0.005504924,-0.003524961,0.202012571,-0.079300937,0.007481415
-0.077516399,-0.200398043,-0.976643145,0.000444449,0.013707235,0.012424946,0.004903089,-0.00295525,0.002183845,0.201764195,-0.079204201,0.007542331
-0.077516399,-0.200398043,-0.976643145,0.000444449,0.013707235,0.012424946,0.004903089,-0.00295525,0.002183845,0.201764195,-0.079204201,0.007542331
-0.077516399,-0.200398043,-0.976643145,0.000444449,0.013707235,0.012424946,0.004903089,-0.00295525,0.002183845,0.201764195,-0.079204201,0.007542331
-0.077593029,-0.20080255,-0.976553977,0.000322729,0.007474214,0.010138512,0.020289436,-0.006348564,-0.005187785,0.20217709,-0.07928938,0.00755541
-0.077593029,-0.20080255,-0.976553977,0.000322729,0.007474214,0.010138512,0.020289436,-0.006348564,-0.005187785,0.20217709,-0.07928938,0.00755541
-0.077593029,-0.20080255,-0.976553977,0.000322729,0.007474214,0.010138512,0.020289436,-0.006348564,-0.005187785,0.20217709,-0.07928938,0.00755541
-0.077593029,-0.20080255,-0.976553977,0.000322729,0.007474214,0.010138512,0.020289436,-0.006348564,-0.005187785,0.20217709,-0.07928938,0.00755541
-0.077593029,-0.20080255,-0.976553977,0.000322729,0.007474214,0.010138512,0.020289436,-0.006348564,-0.005187785,0.20217709,-0.07928938,0.00755541
-0.077585384,-0.201167211,-0.97647953,0.001459487,-0.005451545,0.012062967,0.002281433,-0.002824936,-0.001685887,0.202549343,-0.079287614,0.007546518
-0.077585384,-0.201167211,-0.97647953,0.001459487,-0.005451545,0.012062967,0.002281433,-0.002824936,-0.001685887,0.202549343,-0.079287614,0.007546518
-0.077585384,-0.201167211,-0.97647953,0.001459487,-0.005451545,0.012062967,0.002281433,-0.002824936,-0.001685887,0.202549343,-0.079287614,0.007546518
-0.077585384,-0.201167211,-0.97647953,0.001459487,-0.005451545,0.012062967,0.002281433,-0.002824936,-0.001685887,0.202549343,-0.079287614,0.007546518
-0.077585384,-0.201167211,-0.97647953,0.001459487,-0.005451545,0.012062967,0.002281433,-0.002824936,-0.001685887,0.202549343,-0.079287614,0.007546518
-0.077585384,-0.201167211,-0.97647953,0.001459487,-0.005451545,0.012062967,0.002281433,-0.002824936,-0.001685887,0.202549343,-0.079287614,0.007546518
-0.077585384,-0.201167211,-0.97647953,0.001459487,-0.005451545,0.012062967,0.002281433,-0.002824936,-0.001685887,0.202549343,-0.079287614,0.007546518
-0.077523723,-0.20109944,-0.976498365,0.001275755,-0.003123686,0.010372818,-0.012857093,0.002554552,0.003017308,0.202480154,-0.079223341,0.007542423
-0.077523723,-0.20109944,-0.976498365,0.001275755,-0.003123686,0.010372818,-0.012857093,0.002554552,0.003017308,0.202480154,-0.079223341,0.007542423
-0.077523723,-0.20109944,-0.976498365,0.001275755,-0.003123686,0.010372818,-0.012857093,0.002554552,0.003017308,0.202480154,-0.079223341,0.007542423
-0.077523723,-0.20109944,-0.976498365,0.001275755,-0.003123686,0.010372818,-0.012857093,0.002554552,0.003017308,0.202480154,-0.079223341,0.007542423
-0.077523723,-0.20109944,-0.976498365,0.001275755,-0.003123686,0.010372818,-0.012857093,0.002554552,0.003017308,0.202480154,-0.079223341,0.007542423
-0.077523723,-0.20109944,-0.976498365,0.001275755,-0.003123686,0.010372818,-0.012857093,0.002554552,0.003017308,0.202480154,-0.079223341,0.007542423
-0.077518672,-0.200712129,-0.976578474,0.00104183,0.001097158,0.011383712,-0.007532648,0.004922235,0.001302712,0.202084781,-0.079211737,0.007584884
-0.077518672,-0.200712129,-0.976578474,0.00104183,0.001097158,0.011383712,-0.007532648,0.004922235,0.001302712,0.202084781,-0.079211737,0.007584884
-0.077518672,-0.200712129,-0.976578474,0.00104183,0.001097158,0.011383712,-0.007532648,0.004922235,0.001302712,0.202084781,-0.079211737,0.007584884
-0.077518672,-0.200712129,-0.976578474,0.00104183,0.001097158,0.011383712,-0.007532648,0.004922235,0.001302712,0.202084781,-0.079211737,0.007584884
-0.077518672,-0.200712129,-0.976578474,0.00104183,0.001097158,0.011383712,-0.007532648,0.004922235,0.001302712,0.202084781,-0.079211737,0.007584884
-0.077496894,-0.200556308,-0.97661221,0.002408594,0.008585989,0.012439787,0.010923658,-0.003456856,-0.002049409,0.201925733,-0.07918685,0.0075551
-0.077496894,-0.200556308,-0.97661221,0.002408594,0.008585989,0.012439787,0.010923658,-0.003456856,-0.002049409,0.201925733,-0.07918685,0.0075551
-0.077496894,-0.200556308,-0.97661221,0.002408594,0.008585989,0.012439787,0.010923658,-0.003456856,-0.002049409,0.201925733,-0.07918685,0.0075551
-0.077496894,-0.200556308,-0.97661221,0.002408594,0.008585989,0.012439787,0.010923658,-0.003456856,-0.002049409,0.201925733,-0.07918685,0.0075551
-0.077496894,-0.200556308,-0.97661221,0.002408594,0.008585989,0.012439787,0.010923658,-0.003456856,-0.002049409,0.201925733,-0.07918685,0.0075551
-0.077496894,-0.200556308,-0.97661221,0.002408594,0.008585989,0.012439787,0.010923658,-0.003456856,-0.002049409,0.201925733,-0.07918685,0.0075551
-0.077496894,-0.200556308,-0.97661221,0.002408594,0.008585989,0.012439787,0.010923658,-0.003456856,-0.002049409,0.201925733,-0.07918685,0.0075551
-0.077496894,-0.200556308,-0.97661221,0.002408594,0.008585989,0.012439787,0.010923658,-0.003456856,-0.002049409,0.201925733,-0.07918685,0.0075551
-0.077575743,-0.200912625,-0.976532698,0.000519067,0.007095993,0.008606613,0.019922066,-0.005784882,-0.005586674,0.202289449,-0.079273509,0.007498806
-0.077575743,-0.200912625,-0.976532698,0.000519067,0.007095993,0.008606613,0.019922066,-0.005784882,-0.005586674,0.202289449,-0.079273509,0.007498806
-0.077575743,-0.200912625,-0.976532698,0.000519067,0.007095993,0.008606613,0.019922066,-0.005784882,-0.005586674,0.202289449,-0.079273509,0.007498806
-0.077575743,-0.200912625,-0.976532698,0.000519067,0.007095993,0.008606613,0.019922066,-0.005784882,-0.005586674,0.202289449,-0.079273509,0.007498806
-0.077575743,-0.200912625,-0.976532698,0.000519067,0.007095993,0.008606613,0.019922066,-0.005784882,-0.005586674,0.202289449,-0.079273509,0.007498806
-0.077667408,-0.201284274,-0.976448894,0.002182387,0.000341788,0.010262311,0.008042451,-0.005396423,-0.00490272,0.202668857,-0.07937357,0.007381114
-0.077667408,-0.201284274,-0.976448894,0.002182387,0.000341788,0.010262311,0.008042451,-0.005396423,-0.00490272,0.202668857,-0.07937357,0.007381114
-0.077667408,-0.201284274,-0.976448894,0.002182387,0.000341788,0.010262311,0.008042451,-0.005396423,-0.00490272,0.202668857,-0.07937357,0.007381114
-0.077667408,-0.201284274,-0.976448894,0.002182387,0.000341788,0.010262311,0.008042451,-0.005396423,-0.00490272,0.202668857,-0.07937357,0.007381114
-0.077667408,-0.201284274,-0.976448894,0.002182387,0.000341788,0.010262311,0.008042451,-0.005396423,-0.00490272,0.202668857,-0.07937357,0.007381114
-0.077667408,-0.201284274,-0.976448894,0.002182387,0.000341788,0.010262311,0.008042451,-0.005396423,-0.00490272,0.202668857,-0.07937357,0.007381114
-0.077667408,-0.201284274,-0.976448894,0.002182387,0.000341788,0.010262311,0.008042451,-0.005396423,-0.00490272,0.202668857,-0.07937357,0.007381114
-0.077733018,-0.201259136,-0.976448834,0.002522647,-0.005512208,0.012718916,-0.011315589,-0.003128041,0.000776525,0.202643183,-0.079440341,0.007361768
-0.077733018,-0.201259136,-0.976448834,0.002522647,-0.005512208,0.012718916,-0.011315589,-0.003128041,0.000776525,0.202643183,-0.079440341,0.007361768
-0.077733018,-0.201259136,-0.976448834,0.002522647,-0.005512208,0.012718916,-0.011315589,-0.003128041,0.000776525,0.202643183,-0.079440341,0.007361768
-0.077733018,-0.201259136,-0.976448834,0.002522647,-0.005512208,0.012718916,-0.011315589,-0.003128041,0.000776525,0.202643183,-0.079440341,0.007361768
-0.077733018,-0.201259136,-0.976448834,0.002522647,-0.005512208,0.012718916,-0.011315589,-0.003128041,0.000776525,0.202643183,-0.079440341,0.007361768
-0.077733018,-0.201259136,-0.976448834,0.002522647,-0.005512208,0.012718916,-0.011315589,-0.003128041,0.000776525,0.202643183,-0.079440341,0.007361768
-0.0777613,-0.200636536,-0.976574719,0.000887722,0.005812839,0.013806105,0.000959321,-0.00342767,-0.006538114,0.202007625,-0.079458923,0.007110103
-0.0777613,-0.200636536,-0.976574719,0.000887722,0.005812839,0.013806105,0.000959321,-0.00342767,-0.006538114,0.202007625,-0.079458923,0.007110103
-0.0777613,-0.200636536,-0.976574719,0.000887722,0.005812839,0.013806105,0.000959321,-0.00342767,-0.006538114,0.202007625,-0.079458923,0.007110103
-0.077818781,-0.200716078,-0.976553798,0.003050923,0.008928865,0.010001004,0.007894779,-0.008344253,0.002559724,0.202088825,-0.079519113,0.007081852
-0.077818781,-0.200716078,-0.976553798,0.003050923,0.008928865,0.010001004,0.007894779,-0.008344253,0.002559724,0.202088825,-0.079519113,0.007081852
-0.077818781,-0.200716078,-0.976553798,0.003050923,0.008928865,0.010001004,0.007894779,-0.008344253,0.002559724,0.202088825,-0.079519113,0.007081852
-0.077818781,-0.200716078,-0.976553798,0.003050923,0.008928865,0.010001004,0.007894779,-0.008344253,0.002559724,0.202088825,-0.079519113,0.007081852
-0.077818781,-0.200716078,-0.976553798,0.003050923,0.008928865,0.010001004,0.007894779,-0.008344253,0.002559724,0.202088825,-0.079519113,0.007081852
-0.077818781,-0.200716078,-0.976553798,0.003050923,0.008928865,0.010001004,0.007894779,-0.008344253,0.002559724,0.202088825,-0.079519113,0.007081852
-0.077818781,-0.200716078,-0.976553798,0.003050923,0.008928865,0.010001004,0.007894779,-0.008344253,0.002559724,0.202088825,-0.079519113,0.007081852
-0.077818781,-0.200716078,-0.976553798,0.003050923,0.008928865,0.010001004,0.007894779,-0.008344253,0.002559724,0.202088825,-0.079519113,0.007081852
-0.077818781,-0.200716078,-0.976553798,0.003050923,0.008928865,0.010001004,0.007894779,-0.008344253,0.002559724,0.202088825,-0.079519113,0.007081852
-0.077859089,-0.200891793,-0.976514459,0.00039041,-0.00217171,0.009442866,-0.002525626,0.003426083,-0.006288043,0.202268186,-0.079563318,0.007005664
-0.077859089,-0.200891793,-0.976514459,0.00039041,-0.00217171,0.009442866,-0.002525626,0.003426083,-0.006288043,0.202268186,-0.079563318,0.007005664
-0.077859089,-0.200891793,-0.976514459,0.00039041,-0.00217171,0.009442866,-0.002525626,0.003426083,-0.006288043,0.202268186,-0.079563318,0.007005664
-0.077859089,-0.200891793,-0.976514459,0.00039041,-0.00217171,0.009442866,-0.002525626,0.003426083,-0.006288043,0.202268186,-0.079563318,0.007005664
-0.077859089,-0.200891793,-0.976514459,0.00039041,-0.00217171,0.009442866,-0.002525626,0.003426083,-0.006288043,0.202268186,-0.079563318,0.007005664
-0.077859089,-0.200891793,-0.976514459,0.00039041,-0.00217171,0.009442866,-0.002525626,0.003426083,-0.006288043,0.202268186,-0.079563318,0.007005664
-0.077859089,-0.200891793,-0.976514459,0.00039041,-0.00217171,0.009442866,-0.002525626,0.003426083,-0.006288043,0.202268186,-0.079563318,0.007005664
-0.077859089,-0.200891793,-0.976514459,0.00039041,-0.00217171,0.009442866,-0.002525626,0.003426083,-0.006288043,0.202268186,-0.079563318,0.007005664
-0.077859089,-0.200891793,-0.976514459,0.00039041,-0.00217171,0.009442866,-0.002525626,0.003426083,-0.006288043,0.202268186,-0.079563318,0.007005664
-0.077793293,-0.200963378,-0.976504982,0.002003074,0.00186716,0.013431191,0.000262438,-0.000302657,-0.001374777,0.202341261,-0.079497132,0.00692385
-0.077793293,-0.200963378,-0.976504982,0.002003074,0.00186716,0.013431191,0.000262438,-0.000302657,-0.001374777,0.202341261,-0.079497132,0.00692385
-0.077793293,-0.200963378,-0.976504982,0.002003074,0.00186716,0.013431191,0.000262438,-0.000302657,-0.001374777,0.202341261,-0.079497132,0.00692385
-0.077938706,-0.201060042,-0.976473451,0.00500188,0.003825411,0.00735718,0.006431437,-0.009628635,0.000859029,0.202439945,-0.07964766,0.006978921
-0.077938706,-0.201060042,-0.976473451,0.00500188,0.003825411,0.00735718,0.006431437,-0.009628635,0.000859029,0.202439945,-0.07964766,0.006978921
-0.077938706,-0.201060042,-0.976473451,0.00500188,0.003825411,0.00735718,0.006431437,-0.009628635,0.000859029,0.202439945,-0.07964766,0.006978921
-0.077938706,-0.201060042,-0.976473451,0.00500188,0.003825411,0.00735718,0.006431437,-0.009628635,0.000859029,0.202439945,-0.07964766,0.006978921
-0.077938706,-0.201060042,-0.976473451,0.00500188,0.003825411,0.00735718,0.006431437,-0.009628635,0.000859029,0.202439945,-0.07964766,0.006978921
-0.077938706,-0.201060042,-0.976473451,0.00500188,0.003825411,0.00735718,0.006431437,-0.009628635,0.000859029,0.202439945,-0.07964766,0.006978921
-0.077938706,-0.201060042,-0.976473451,0.00500188,0.003825411,0.00735718,0.006431437,-0.009628635,0.000859029,0.202439945,-0.07964766,0.006978921
-0.077938706,-0.201060042,-0.976473451,0.00500188,0.003825411,0.00735718,0.006431437,-0.009628635,0.000859029,0.202439945,-0.07964766,0.006978921
-0.077938706,-0.201060042,-0.976473451,0.00500188,0.003825411,0.00735718,0.006431437,-0.009628635,0.000859029,0.202439945,-0.07964766,0.006978921
-0.077938706,-0.201060042,-0.976473451,0.00500188,0.003825411,0.00735718,0.006431437,-0.009628635,0.000859029,0.202439945,-0.07964766,0.006978921
-0.077938706,-0.201060042,-0.976473451,0.00500188,0.003825411,0.00735718,0.006431437,-0.009628635,0.000859029,0.202439945,-0.07964766,0.006978921
-0.077938706,-0.201060042,-0.976473451,0.00500188,0.003825411,0.00735718,0.006431437,-0.009628635,0.000859029,0.202439945,-0.07964766,0.006978921
-0.077938706,-0.201060042,-0.976473451,0.00500188,0.003825411,0.00735718,0.006431437,-0.009628635,0.000859029,0.202439945,-0.07964766,0.006978921
-0.077938706,-0.201060042,-0.976473451,0.00500188,0.003825411,0.00735718,0.006431437,-0.009628635,0.000859029,0.202439945,-0.07964766,0.006978921
-0.078065626,-0.201013282,-0.976472974,0.003328264,0.000909999,0.010652602,-0.008166027,-0.008023439,-0.005141392,0.2023922,-0.079776854,0.007002867
-0.078065626,-0.201013282,-0.976472974,0.003328264,0.000909999,0.010652602,-0.008166027,-0.008023439,-0.005141392,0.2023922,-0.079776854,0.007002867
-0.078065626,-0.201013282,-0.976472974,0.003328264,0.000909999,0.010652602,-0.008166027,-0.008023439,-0.005141392,0.2023922,-0.079776854,0.007002867
-0.078065626,-0.201013282,-0.976472974,0.003328264,0.000909999,0.010652602,-0.008166027,-0.008023439,-0.005141392,0.2023922,-0.079776854,0.007002867
-0.078358069,-0.201356471,-0.976378798,0.001850672,0.000825897,0.010375381,0.010229545,-0.00584323,-0.006769968,0.202742559,-0.080082127,0.007087768
-0.078358069,-0.201356471,-0.976378798,0.001850672,0.000825897,0.010375381,0.010229545,-0.00584323,-0.006769968,0.202742559,-0.080082127,0.007087768
-0.078358069,-0.201356471,-0.976378798,0.001850672,0.000825897,0.010375381,0.010229545,-0.00584323,-0.006769968,0.202742559,-0.080082127,0.007087768
-0.078358069,-0.201356471,-0.976378798,0.001850672,0.000825897,0.010375381,0.010229545,-0.00584323,-0.006769968,0.202742559,-0.080082127,0.007087768
-0.078358069,-0.201356471,-0.976378798,0.001850672,0.000825897,0.010375381,0.010229545,-0.00584323,-0.006769968,0.202742559,-0.080082127,0.007087768
-0.078358069,-0.201356471,-0.976378798,0.001850672,0.000825897,0.010375381,0.010229545,-0.00584323,-0.006769968,0.202742559,-0.080082127,0.007087768
-0.078371592,-0.201560482,-0.976335645,0.001055487,-0.002983168,0.01255995,0.01223854,0.002436696,0.003971785,0.202950845,-0.080099416,0.007047274
-0.078371592,-0.201560482,-0.976335645,0.001055487,-0.002983168,0.01255995,0.01223854,0.002436696,0.003971785,0.202950845,-0.080099416,0.007047274
-0.078371592,-0.201560482,-0.976335645,0.001055487,-0.002983168,0.01255995,0.01223854,0.002436696,0.003971785,0.202950845,-0.080099416,0.007047274
-0.078371592,-0.201560482,-0.976335645,0.001055487,-0.002983168,0.01255995,0.01223854,0.002436696,0.003971785,0.202950845,-0.080099416,0.007047274
-0.079212725,-0.197325572,-0.977132499,-0.01543735,0.052520111,0.10501641,0.184457138,0.043256115,0.008773305,0.198629095,-0.080889627,0.006332545
-0.079212725,-0.197325572,-0.977132499,-0.01543735,0.052520111,0.10501641,0.184457138,0.043256115,0.008773305,0.198629095,-0.080889627,0.006332545
-0.079212725,-0.197325572,-0.977132499,-0.01543735,0.052520111,0.10501641,0.184457138,0.043256115,0.008773305,0.198629095,-0.080889627,0.006332545
-0.079212725,-0.197325572,-0.977132499,-0.01543735,0.052520111,0.10501641,0.184457138,0.043256115,0.008773305,0.198629095,-0.080889627,0.006332545
-0.077777766,-0.195099413,-0.977694631,-0.03094092,-0.086424798,-0.039166331,-0.02941764,0.00930356,-0.016111434,0.196358812,-0.079385021,0.005383423
-0.077777766,-0.195099413,-0.977694631,-0.03094092,-0.086424798,-0.039166331,-0.02941764,0.00930356,-0.016111434,0.196358812,-0.079385021,0.005383423
-0.077777766,-0.195099413,-0.977694631,-0.03094092,-0.086424798,-0.039166331,-0.02941764,0.00930356,-0.016111434,0.196358812,-0.079385021,0.005383423
-0.077777766,-0.195099413,-0.977694631,-0.03094092,-0.086424798,-0.039166331,-0.02941764,0.00930356,-0.016111434,0.196358812,-0.079385021,0.005383423
-0.077383801,-0.196115226,-0.977522671,0.025046356,-0.018483877,-0.015824556,0.13024427,0.042662594,0.011882385,0.197394628,-0.078998432,0.005982166
-0.077383801,-0.196115226,-0.977522671,0.025046356,-0.018483877,-0.015824556,0.13024427,0.042662594,0.011882385,0.197394628,-0.078998432,0.005982166
-0.077383801,-0.196115226,-0.977522671,0.025046356,-0.018483877,-0.015824556,0.13024427,0.042662594,0.011882385,0.197394628,-0.078998432,0.005982166
-0.076938055,-0.200416416,-0.976685107,0.010776162,0.027885854,-0.00028944,0.185886979,-0.057664458,0.022838736,0.201782947,-0.078612335,0.006349532
-0.076938055,-0.200416416,-0.976685107,0.010776162,0.027885854,-0.00028944,0.185886979,-0.057664458,0.022838736,0.201782947,-0.078612335,0.006349532
-0.076938055,-0.200416416,-0.976685107,0.010776162,0.027885854,-0.00028944,0.185886979,-0.057664458,0.022838736,0.201782947,-0.078612335,0.006349532
-0.076938055,-0.200416416,-0.976685107,0.010776162,0.027885854,-0.00028944,0.185886979,-0.057664458,0.022838736,0.201782947,-0.078612335,0.006349532
-0.076938055,-0.200416416,-0.976685107,0.010776162,0.027885854,-0.00028944,0.185886979,-0.057664458,0.022838736,0.201782947,-0.078612335,0.006349532
-0.078285135,-0.201060086,-0.976445735,0.009559773,-0.038868546,0.079671383,0.02437539,0.015179002,0.061474063,0.202439985,-0.080002447,0.00848422
-0.078285135,-0.201060086,-0.976445735,0.009559773,-0.038868546,0.079671383,0.02437539,0.015179002,0.061474063,0.202439985,-0.080002447,0.00848422
-0.078285135,-0.201060086,-0.976445735,0.009559773,-0.038868546,0.079671383,0.02437539,0.015179002,0.061474063,0.202439985,-0.080002447,0.00848422
-0.078285135,-0.201060086,-0.976445735,0.009559773,-0.038868546,0.079671383,0.02437539,0.015179002,0.061474063,0.202439985,-0.080002447,0.00848422
-0.078285135,-0.201060086,-0.976445735,0.009559773,-0.038868546,0.079671383,0.02437539,0.015179002,0.061474063,0.202439985,-0.080002447,0.00848422
-0.078285135,-0.201060086,-0.976445735,0.009559773,-0.038868546,0.079671383,0.02437539,0.015179002,0.061474063,0.202439985,-0.080002447,0.00848422
-0.078310512,-0.202767372,-0.97609061,-0.018201113,-0.007864386,-0.008742213,-0.021107579,0.020533927,-0.029138286,0.204183183,-0.080057259,0.008119777
-0.078310512,-0.202767372,-0.97609061,-0.018201113,-0.007864386,-0.008742213,-0.021107579,0.020533927,-0.029138286,0.204183183,-0.080057259,0.008119777
-0.078310512,-0.202767372,-0.97609061,-0.018201113,-0.007864386,-0.008742213,-0.021107579,0.020533927,-0.029138286,0.204183183,-0.080057259,0.008119777
-0.078310512,-0.202767372,-0.97609061,-0.018201113,-0.007864386,-0.008742213,-0.021107579,0.020533927,-0.029138286,0.204183183,-0.080057259,0.008119777
-0.078310512,-0.202767372,-0.97609061,-0.018201113,-0.007864386,-0.008742213,-0.021107579,0.020533927,-0.029138286,0.204183183,-0.080057259,0.008119777
-0.078310512,-0.202767372,-0.97609061,-0.018201113,-0.007864386,-0.008742213,-0.021107579,0.020533927,-0.029138286,0.204183183,-0.080057259,0.008119777
-0.077061757,-0.201028138,-0.976549625,0.00380455,0.006067216,0.017931402,-0.031238763,0.001406439,-0.010417275,0.202407375,-0.078749093,0.007548621
-0.077061757,-0.201028138,-0.976549625,0.00380455,0.006067216,0.017931402,-0.031238763,0.001406439,-0.010417275,0.202407375,-0.078749093,0.007548621
-0.077061757,-0.201028138,-0.976549625,0.00380455,0.006067216,0.017931402,-0.031238763,0.001406439,-0.010417275,0.202407375,-0.078749093,0.007548621
-0.077061757,-0.201028138,-0.976549625,0.00380455,0.006067216,0.017931402,-0.031238763,0.001406439,-0.010417275,0.202407375,-0.078749093,0.007548621