gravityX,gravityY,gravityZ,accelX,accelY,accelZ,rotRateX,rotRatY,rotRateZ,attPitch,attRoll,attYaw
-0.079179689,-0.269611478,-0.959708393,0.015581049,-0.014110476,0.014823139,0.051511284,0.029952293,0.009762722,0.272989551,-0.082317469,0.011669741
-0.079179689,-0.269611478,-0.959708393,0.015581049,-0.014110476,0.014823139,0.051511284,0.029952293,0.009762722,0.272989551,-0.082317469,0.011669741
-0.079179689,-0.269611478,-0.959708393,0.015581049,-0.014110476,0.014823139,0.051511284,0.029952293,0.009762722,0.272989551,-0.082317469,0.011669741
-0.078777172,-0.27045837,-0.959503233,0.008342586,-0.014758945,0.015899718,-0.008509855,0.002990753,-0.021369949,0.27386912,-0.081918303,0.011442203
-0.078777172,-0.27045837,-0.959503233,0.008342586,-0.014758945,0.015899718,-0.008509855,0.002990753,-0.021369949,0.27386912,-0.081918303,0.011442203
-0.078777172,-0.27045837,-0.959503233,0.008342586,-0.014758945,0.015899718,-0.008509855,0.002990753,-0.021369949,0.27386912,-0.081918303,0.011442203
-0.078777172,-0.27045837,-0.959503233,0.008342586,-0.014758945,0.015899718,-0.008509855,0.002990753,-0.021369949,0.27386912,-0.081918303,0.011442203
-0.078777172,-0.27045837,-0.959503233,0.008342586,-0.014758945,0.015899718,-0.008509855,0.002990753,-0.021369949,0.27386912,-0.081918303,0.011442203
-0.078777172,-0.27045837,-0.959503233,0.008342586,-0.014758945,0.015899718,-0.008509855,0.002990753,-0.021369949,0.27386912,-0.081918303,0.011442203
-0.078777172,-0.27045837,-0.959503233,0.008342586,-0.014758945,0.015899718,-0.008509855,0.002990753,-0.021369949,0.27386912,-0.081918303,0.011442203
-0.078777172,-0.27045837,-0.959503233,0.008342586,-0.014758945,0.015899718,-0.008509855,0.002990753,-0.021369949,0.27386912,-0.081918303,0.011442203
-0.078777172,-0.27045837,-0.959503233,0.008342586,-0.014758945,0.015899718,-0.008509855,0.002990753,-0.021369949,0.27386912,-0.081918303,0.011442203
-0.078777172,-0.27045837,-0.959503233,0.008342586,-0.014758945,0.015899718,-0.008509855,0.002990753,-0.021369949,0.27386912,-0.081918303,0.011442203
-0.078777172,-0.27045837,-0.959503233,0.008342586,-0.014758945,0.015899718,-0.008509855,0.002990753,-0.021369949,0.27386912,-0.081918303,0.011442203
-0.078777172,-0.27045837,-0.959503233,0.008342586,-0.014758945,0.015899718,-0.008509855,0.002990753,-0.021369949,0.27386912,-0.081918303,0.011442203
-0.078442775,-0.270084471,-0.959635913,-0.004504018,0.004642546,0.016307056,-0.033060141,0.006844796,-0.026455523,0.273480766,-0.081560886,0.010898711
-0.078442775,-0.270084471,-0.959635913,-0.004504018,0.004642546,0.016307056,-0.033060141,0.006844796,-0.026455523,0.273480766,-0.081560886,0.010898711
-0.078442775,-0.270084471,-0.959635913,-0.004504018,0.004642546,0.016307056,-0.033060141,0.006844796,-0.026455523,0.273480766,-0.081560886,0.010898711
-0.078442775,-0.270084471,-0.959635913,-0.004504018,0.004642546,0.016307056,-0.033060141,0.006844796,-0.026455523,0.273480766,-0.081560886,0.010898711
-0.078442775,-0.270084471,-0.959635913,-0.004504018,0.004642546,0.016307056,-0.033060141,0.006844796,-0.026455523,0.273480766,-0.081560886,0.010898711
-0.078442775,-0.270084471,-0.959635913,-0.004504018,0.004642546,0.016307056,-0.033060141,0.006844796,-0.026455523,0.273480766,-0.081560886,0.010898711
-0.078442775,-0.270084471,-0.959635913,-0.004504018,0.004642546,0.016307056,-0.033060141,0.006844796,-0.026455523,0.273480766,-0.081560886,0.010898711
-0.078442775,-0.270084471,-0.959635913,-0.004504018,0.004642546,0.016307056,-0.033060141,0.006844796,-0.026455523,0.273480766,-0.081560886,0.010898711
-0.078442775,-0.270084471,-0.959635913,-0.004504018,0.004642546,0.016307056,-0.033060141,0.006844796,-0.026455523,0.273480766,-0.081560886,0.010898711
-0.078244932,-0.269495279,-0.959817708,0.003751509,-0.006719381,0.018670857,-0.032412179,0.005338427,-0.012992391,0.272868881,-0.081340749,0.010422265
-0.078244932,-0.269495279,-0.959817708,0.003751509,-0.006719381,0.018670857,-0.032412179,0.005338427,-0.012992391,0.272868881,-0.081340749,0.010422265
-0.078244932,-0.269495279,-0.959817708,0.003751509,-0.006719381,0.018670857,-0.032412179,0.005338427,-0.012992391,0.272868881,-0.081340749,0.010422265
-0.078244932,-0.269495279,-0.959817708,0.003751509,-0.006719381,0.018670857,-0.032412179,0.005338427,-0.012992391,0.272868881,-0.081340749,0.010422265
-0.078244932,-0.269495279,-0.959817708,0.003751509,-0.006719381,0.018670857,-0.032412179,0.005338427,-0.012992391,0.272868881,-0.081340749,0.010422265
-0.078244932,-0.269495279,-0.959817708,0.003751509,-0.006719381,0.018670857,-0.032412179,0.005338427,-0.012992391,0.272868881,-0.081340749,0.010422265
-0.078244932,-0.269495279,-0.959817708,0.003751509,-0.006719381,0.018670857,-0.032412179,0.005338427,-0.012992391,0.272868881,-0.081340749,0.010422265
-0.078244932,-0.269495279,-0.959817708,0.003751509,-0.006719381,0.018670857,-0.032412179,0.005338427,-0.012992391,0.272868881,-0.081340749,0.010422265
-0.078244932,-0.269495279,-0.959817708,0.003751509,-0.006719381,0.018670857,-0.032412179,0.005338427,-0.012992391,0.272868881,-0.081340749,0.010422265
-0.078244932,-0.269495279,-0.959817708,0.003751509,-0.006719381,0.018670857,-0.032412179,0.005338427,-0.012992391,0.272868881,-0.081340749,0.010422265
-0.078244932,-0.269495279,-0.959817708,0.003751509,-0.006719381,0.018670857,-0.032412179,0.005338427,-0.012992391,0.272868881,-0.081340749,0.010422265
-0.078244932,-0.269495279,-0.959817708,0.003751509,-0.006719381,0.018670857,-0.032412179,0.005338427,-0.012992391,0.272868881,-0.081340749,0.010422265
-0.078113027,-0.268994004,-0.959969044,0.00171227,0.003262192,0.014168262,-0.025436094,0.002782894,0.010279642,0.27234838,-0.081191481,0.010319173
-0.078113027,-0.268994004,-0.959969044,0.00171227,0.003262192,0.014168262,-0.025436094,0.002782894,0.010279642,0.27234838,-0.081191481,0.010319173
-0.078113027,-0.268994004,-0.959969044,0.00171227,0.003262192,0.014168262,-0.025436094,0.002782894,0.010279642,0.27234838,-0.081191481,0.010319173
-0.078243405,-0.268433392,-0.960115373,0.005657345,0.001038373,0.014070451,-0.031960294,-0.000384537,0.018130161,0.271766359,-0.081314063,0.010548226
-0.078243405,-0.268433392,-0.960115373,0.005657345,0.001038373,0.014070451,-0.031960294,-0.000384537,0.018130161,0.271766359,-0.081314063,0.010548226
-0.078243405,-0.268433392,-0.960115373,0.005657345,0.001038373,0.014070451,-0.031960294,-0.000384537,0.018130161,0.271766359,-0.081314063,0.010548226
-0.078243405,-0.268433392,-0.960115373,0.005657345,0.001038373,0.014070451,-0.031960294,-0.000384537,0.018130161,0.271766359,-0.081314063,0.010548226
-0.078243405,-0.268433392,-0.960115373,0.005657345,0.001038373,0.014070451,-0.031960294,-0.000384537,0.018130161,0.271766359,-0.081314063,0.010548226
-0.078243405,-0.268433392,-0.960115373,0.005657345,0.001038373,0.014070451,-0.031960294,-0.000384537,0.018130161,0.271766359,-0.081314063,0.010548226
-0.078243405,-0.268433392,-0.960115373,0.005657345,0.001038373,0.014070451,-0.031960294,-0.000384537,0.018130161,0.271766359,-0.081314063,0.010548226
-0.078243405,-0.268433392,-0.960115373,0.005657345,0.001038373,0.014070451,-0.031960294,-0.000384537,0.018130161,0.271766359,-0.081314063,0.010548226
-0.078262143,-0.267948627,-0.960249245,0.001556225,0.002949327,0.017240763,-0.011315135,0.006133829,0.045756463,0.271263169,-0.08132216,0.011348755
-0.078262143,-0.267948627,-0.960249245,0.001556225,0.002949327,0.017240763,-0.011315135,0.006133829,0.045756463,0.271263169,-0.08132216,0.011348755
-0.078262143,-0.267948627,-0.960249245,0.001556225,0.002949327,0.017240763,-0.011315135,0.006133829,0.045756463,0.271263169,-0.08132216,0.011348755
-0.078262143,-0.267948627,-0.960249245,0.001556225,0.002949327,0.017240763,-0.011315135,0.006133829,0.045756463,0.271263169,-0.08132216,0.011348755
-0.078262143,-0.267948627,-0.960249245,0.001556225,0.002949327,0.017240763,-0.011315135,0.006133829,0.045756463,0.271263169,-0.08132216,0.011348755
-0.078262143,-0.267948627,-0.960249245,0.001556225,0.002949327,0.017240763,-0.011315135,0.006133829,0.045756463,0.271263169,-0.08132216,0.011348755
-0.078262143,-0.267948627,-0.960249245,0.001556225,0.002949327,0.017240763,-0.011315135,0.006133829,0.045756463,0.271263169,-0.08132216,0.011348755
-0.078262143,-0.267948627,-0.960249245,0.001556225,0.002949327,0.017240763,-0.011315135,0.006133829,0.045756463,0.271263169,-0.08132216,0.011348755
-0.078262143,-0.267948627,-0.960249245,0.001556225,0.002949327,0.017240763,-0.011315135,0.006133829,0.045756463,0.271263169,-0.08132216,0.011348755
-0.078262143,-0.267948627,-0.960249245,0.001556225,0.002949327,0.017240763,-0.011315135,0.006133829,0.045756463,0.271263169,-0.08132216,0.011348755
-0.078262143,-0.267948627,-0.960249245,0.001556225,0.002949327,0.017240763,-0.011315135,0.006133829,0.045756463,0.271263169,-0.08132216,0.011348755
-0.078262143,-0.267948627,-0.960249245,0.001556225,0.002949327,0.017240763,-0.011315135,0.006133829,0.045756463,0.271263169,-0.08132216,0.011348755
-0.074820213,-0.277147889,-0.957909703,0.002310447,0.017840028,0.009621739,0.007865097,0.009715672,0.035625584,0.280824431,-0.07794953,0.01097879
-0.074820213,-0.277147889,-0.957909703,0.002310447,0.017840028,0.009621739,0.007865097,0.009715672,0.035625584,0.280824431,-0.07794953,0.01097879
-0.074820213,-0.277147889,-0.957909703,0.002310447,0.017840028,0.009621739,0.007865097,0.009715672,0.035625584,0.280824431,-0.07794953,0.01097879
-0.074820213,-0.277147889,-0.957909703,0.002310447,0.017840028,0.009621739,0.007865097,0.009715672,0.035625584,0.280824431,-0.07794953,0.01097879
-0.076638326,-0.274866492,-0.958423197,0.000451215,0.0190835,0.011767924,0.004453667,-0.0051361,0.007062969,0.278450832,-0.079793155,0.011897718
-0.076638326,-0.274866492,-0.958423197,0.000451215,0.0190835,0.011767924,0.004453667,-0.0051361,0.007062969,0.278450832,-0.079793155,0.011897718
-0.076638326,-0.274866492,-0.958423197,0.000451215,0.0190835,0.011767924,0.004453667,-0.0051361,0.007062969,0.278450832,-0.079793155,0.011897718
-0.076638326,-0.274866492,-0.958423197,0.000451215,0.0190835,0.011767924,0.004453667,-0.0051361,0.007062969,0.278450832,-0.079793155,0.011897718
-0.076638326,-0.274866492,-0.958423197,0.000451215,0.0190835,0.011767924,0.004453667,-0.0051361,0.007062969,0.278450832,-0.079793155,0.011897718
-0.076638326,-0.274866492,-0.958423197,0.000451215,0.0190835,0.011767924,0.004453667,-0.0051361,0.007062969,0.278450832,-0.079793155,0.011897718
-0.076638326,-0.274866492,-0.958423197,0.000451215,0.0190835,0.011767924,0.004453667,-0.0051361,0.007062969,0.278450832,-0.079793155,0.011897718
-0.076638326,-0.274866492,-0.958423197,0.000451215,0.0190835,0.011767924,0.004453667,-0.0051361,0.007062969,0.278450832,-0.079793155,0.011897718
-0.076638326,-0.274866492,-0.958423197,0.000451215,0.0190835,0.011767924,0.004453667,-0.0051361,0.007062969,0.278450832,-0.079793155,0.011897718
-0.07571546,-0.273863614,-0.958783567,-0.00439316,0.010191828,0.014005125,0.010629112,-0.007049121,0.000917618,0.277407947,-0.078806788,0.011707153
-0.07571546,-0.273863614,-0.958783567,-0.00439316,0.010191828,0.014005125,0.010629112,-0.007049121,0.000917618,0.277407947,-0.078806788,0.011707153
-0.07571546,-0.273863614,-0.958783567,-0.00439316,0.010191828,0.014005125,0.010629112,-0.007049121,0.000917618,0.277407947,-0.078806788,0.011707153
-0.07571546,-0.273863614,-0.958783567,-0.00439316,0.010191828,0.014005125,0.010629112,-0.007049121,0.000917618,0.277407947,-0.078806788,0.011707153
-0.07571546,-0.273863614,-0.958783567,-0.00439316,0.010191828,0.014005125,0.010629112,-0.007049121,0.000917618,0.277407947,-0.078806788,0.011707153
-0.07571546,-0.273863614,-0.958783567,-0.00439316,0.010191828,0.014005125,0.010629112,-0.007049121,0.000917618,0.277407947,-0.078806788,0.011707153
-0.07571546,-0.273863614,-0.958783567,-0.00439316,0.010191828,0.014005125,0.010629112,-0.007049121,0.000917618,0.277407947,-0.078806788,0.011707153
-0.07571546,-0.273863614,-0.958783567,-0.00439316,0.010191828,0.014005125,0.010629112,-0.007049121,0.000917618,0.277407947,-0.078806788,0.011707153
-0.07571546,-0.273863614,-0.958783567,-0.00439316,0.010191828,0.014005125,0.010629112,-0.007049121,0.000917618,0.277407947,-0.078806788,0.011707153
-0.07571546,-0.273863614,-0.958783567,-0.00439316,0.010191828,0.014005125,0.010629112,-0.007049121,0.000917618,0.277407947,-0.078806788,0.011707153
-0.076559961,-0.273534954,-0.958810329,-0.001687087,0.013754129,0.014184475,0.020226639,-0.013701117,-0.008453673,0.277066234,-0.079679857,0.011852292
-0.076559961,-0.273534954,-0.958810329,-0.001687087,0.013754129,0.014184475,0.020226639,-0.013701117,-0.008453673,0.277066234,-0.079679857,0.011852292
-0.076559961,-0.273534954,-0.958810329,-0.001687087,0.013754129,0.014184475,0.020226639,-0.013701117,-0.008453673,0.277066234,-0.079679857,0.011852292
-0.076559961,-0.273534954,-0.958810329,-0.001687087,0.013754129,0.014184475,0.020226639,-0.013701117,-0.008453673,0.277066234,-0.079679857,0.011852292
-0.076559961,-0.273534954,-0.958810329,-0.001687087,0.013754129,0.014184475,0.020226639,-0.013701117,-0.008453673,0.277066234,-0.079679857,0.011852292
-0.076559961,-0.273534954,-0.958810329,-0.001687087,0.013754129,0.014184475,0.020226639,-0.013701117,-0.008453673,0.277066234,-0.079679857,0.011852292
-0.076559961,-0.273534954,-0.958810329,-0.001687087,0.013754129,0.014184475,0.020226639,-0.013701117,-0.008453673,0.277066234,-0.079679857,0.011852292
-0.076559961,-0.273534954,-0.958810329,-0.001687087,0.013754129,0.014184475,0.020226639,-0.013701117,-0.008453673,0.277066234,-0.079679857,0.011852292
-0.076559961,-0.273534954,-0.958810329,-0.001687087,0.013754129,0.014184475,0.020226639,-0.013701117,-0.008453673,0.277066234,-0.079679857,0.011852292
-0.076623395,-0.271550089,-0.959369302,-0.000433467,0.016896248,0.012530923,0.031303484,-0.025166957,-0.025173957,0.27500329,-0.079699333,0.011340503
-0.076623395,-0.271550089,-0.959369302,-0.000433467,0.016896248,0.012530923,0.031303484,-0.025166957,-0.025173957,0.27500329,-0.079699333,0.011340503
-0.076623395,-0.271550089,-0.959369302,-0.000433467,0.016896248,0.012530923,0.031303484,-0.025166957,-0.025173957,0.27500329,-0.079699333,0.011340503
-0.076623395,-0.271550089,-0.959369302,-0.000433467,0.016896248,0.012530923,0.031303484,-0.025166957,-0.025173957,0.27500329,-0.079699333,0.011340503
-0.076623395,-0.271550089,-0.959369302,-0.000433467,0.016896248,0.012530923,0.031303484,-0.025166957,-0.025173957,0.27500329,-0.079699333,0.011340503
-0.076623395,-0.271550089,-0.959369302,-0.000433467,0.016896248,0.012530923,0.031303484,-0.025166957,-0.025173957,0.27500329,-0.079699333,0.011340503
-0.076623395,-0.271550089,-0.959369302,-0.000433467,0.016896248,0.012530923,0.031303484,-0.025166957,-0.025173957,0.27500329,-0.079699333,0.011340503
-0.076623395,-0.271550089,-0.959369302,-0.000433467,0.016896248,0.012530923,0.031303484,-0.025166957,-0.025173957,0.27500329,-0.079699333,0.011340503
-0.076623395,-0.271550089,-0.959369302,-0.000433467,0.016896248,0.012530923,0.031303484,-0.025166957,-0.025173957,0.27500329,-0.079699333,0.011340503
-0.076623395,-0.271550089,-0.959369302,-0.000433467,0.016896248,0.012530923,0.031303484,-0.025166957,-0.025173957,0.27500329,-0.079699333,0.011340503
-0.076623395,-0.271550089,-0.959369302,-0.000433467,0.016896248,0.012530923,0.031303484,-0.025166957,-0.025173957,0.27500329,-0.079699333,0.011340503
-0.076623395,-0.271550089,-0.959369302,-0.000433467,0.016896248,0.012530923,0.031303484,-0.025166957,-0.025173957,0.27500329,-0.079699333,0.011340503
-0.077605672,-0.271309078,-0.959358513,-0.004669681,-0.001975685,0.01699096,0.022036817,-0.017218038,-0.01373275,0.274752855,-0.080717536,0.011208962
-0.077605672,-0.271309078,-0.959358513,-0.004669681,-0.001975685,0.01699096,0.022036817,-0.017218038,-0.01373275,0.274752855,-0.080717536,0.011208962
-0.077605672,-0.271309078,-0.959358513,-0.004669681,-0.001975685,0.01699096,0.022036817,-0.017218038,-0.01373275,0.274752855,-0.080717536,0.011208962
-0.078055546,-0.271146595,-0.959367931,0.001898997,-0.003114671,0.017397106,0.029743031,-0.005360786,-0.002653361,0.274584045,-0.081182609,0.011255706
-0.078055546,-0.271146595,-0.959367931,0.001898997,-0.003114671,0.017397106,0.029743031,-0.005360786,-0.002653361,0.274584045,-0.081182609,0.011255706
-0.078351252,-0.271197945,-0.959329307,-0.003985114,0.012607455,0.018777549,0.035878927,-0.000583874,-0.001416163,0.27463739,-0.08149207,0.011419507
-0.078351252,-0.271197945,-0.959329307,-0.003985114,0.012607455,0.018777549,0.035878927,-0.000583874,-0.001416163,0.27463739,-0.08149207,0.011419507
-0.078351252,-0.271197945,-0.959329307,-0.003985114,0.012607455,0.018777549,0.035878927,-0.000583874,-0.001416163,0.27463739,-0.08149207,0.011419507
-0.078575447,-0.270624697,-0.959472835,-0.002479166,0.001185268,0.014557064,0.029556131,-0.011765277,-0.017485624,0.274041877,-0.081712047,0.01131599
-0.078575447,-0.270624697,-0.959472835,-0.002479166,0.001185268,0.014557064,0.029556131,-0.011765277,-0.017485624,0.274041877,-0.081712047,0.01131599
-0.078575447,-0.270624697,-0.959472835,-0.002479166,0.001185268,0.014557064,0.029556131,-0.011765277,-0.017485624,0.274041877,-0.081712047,0.01131599
-0.078575447,-0.270624697,-0.959472835,-0.002479166,0.001185268,0.014557064,0.029556131,-0.011765277,-0.017485624,0.274041877,-0.081712047,0.01131599
-0.078575447,-0.270624697,-0.959472835,-0.002479166,0.001185268,0.014557064,0.029556131,-0.011765277,-0.017485624,0.274041877,-0.081712047,0.01131599
-0.078575447,-0.270624697,-0.959472835,-0.002479166,0.001185268,0.014557064,0.029556131,-0.011765277,-0.017485624,0.274041877,-0.081712047,0.01131599
-0.078575447,-0.270624697,-0.959472835,-0.002479166,0.001185268,0.014557064,0.029556131,-0.011765277,-0.017485624,0.274041877,-0.081712047,0.01131599
-0.078575447,-0.270624697,-0.959472835,-0.002479166,0.001185268,0.014557064,0.029556131,-0.011765277,-0.017485624,0.274041877,-0.081712047,0.01131599
-0.078575447,-0.270624697,-0.959472835,-0.002479166,0.001185268,0.014557064,0.029556131,-0.011765277,-0.017485624,0.274041877,-0.081712047,0.01131599
-0.078575447,-0.270624697,-0.959472835,-0.002479166,0.001185268,0.014557064,0.029556131,-0.011765277,-0.017485624,0.274041877,-0.081712047,0.01131599
-0.078575447,-0.270624697,-0.959472835,-0.002479166,0.001185268,0.014557064,0.029556131,-0.011765277,-0.017485624,0.274041877,-0.081712047,0.01131599
-0.078575447,-0.270624697,-0.959472835,-0.002479166,0.001185268,0.014557064,0.029556131,-0.011765277,-0.017485624,0.274041877,-0.081712047,0.01131599
-0.079069734,-0.271053195,-0.959311306,0.001524627,-0.00284189,0.018820524,0.007824804,-0.006806241,-0.013070902,0.274487004,-0.082237538,0.01108052
-0.079069734,-0.271053195,-0.959311306,0.001524627,-0.00284189,0.018820524,0.007824804,-0.006806241,-0.013070902,0.274487004,-0.082237538,0.01108052
-0.079069734,-0.271053195,-0.959311306,0.001524627,-0.00284189,0.018820524,0.007824804,-0.006806241,-0.013070902,0.274487004,-0.082237538,0.01108052
-0.079069734,-0.271053195,-0.959311306,0.001524627,-0.00284189,0.018820524,0.007824804,-0.006806241,-0.013070902,0.274487004,-0.082237538,0.01108052
-0.079069734,-0.271053195,-0.959311306,0.001524627,-0.00284189,0.018820524,0.007824804,-0.006806241,-0.013070902,0.274487004,-0.082237538,0.01108052
-0.079069734,-0.271053195,-0.959311306,0.001524627,-0.00284189,0.018820524,0.007824804,-0.006806241,-0.013070902,0.274487004,-0.082237538,0.01108052
-0.079069734,-0.271053195,-0.959311306,0.001524627,-0.00284189,0.018820524,0.007824804,-0.006806241,-0.013070902,0.274487004,-0.082237538,0.01108052
-0.079069734,-0.271053195,-0.959311306,0.001524627,-0.00284189,0.018820524,0.007824804,-0.006806241,-0.013070902,0.274487004,-0.082237538,0.01108052
-0.079069734,-0.271053195,-0.959311306,0.001524627,-0.00284189,0.018820524,0.007824804,-0.006806241,-0.013070902,0.274487004,-0.082237538,0.01108052
-0.078922302,-0.271639764,-0.959157526,0.002933614,-0.012371778,0.016515255,-0.011665794,0.002232975,0.002799728,0.275096466,-0.082097997,0.010993617
-0.078922302,-0.271639764,-0.959157526,0.002933614,-0.012371778,0.016515255,-0.011665794,0.002232975,0.002799728,0.275096466,-0.082097997,0.010993617
-0.078922302,-0.271639764,-0.959157526,0.002933614,-0.012371778,0.016515255,-0.011665794,0.002232975,0.002799728,0.275096466,-0.082097997,0.010993617
-0.078922302,-0.271639764,-0.959157526,0.002933614,-0.012371778,0.016515255,-0.011665794,0.002232975,0.002799728,0.275096466,-0.082097997,0.010993617
-0.078922302,-0.271639764,-0.959157526,0.002933614,-0.012371778,0.016515255,-0.011665794,0.002232975,0.002799728,0.275096466,-0.082097997,0.010993617
-0.078922302,-0.271639764,-0.959157526,0.002933614,-0.012371778,0.016515255,-0.011665794,0.002232975,0.002799728,0.275096466,-0.082097997,0.010993617
-0.078922302,-0.271639764,-0.959157526,0.002933614,-0.012371778,0.016515255,-0.011665794,0.002232975,0.002799728,0.275096466,-0.082097997,0.010993617
-0.078922302,-0.271639764,-0.959157526,0.002933614,-0.012371778,0.016515255,-0.011665794,0.002232975,0.002799728,0.275096466,-0.082097997,0.010993617
-0.078922302,-0.271639764,-0.959157526,0.002933614,-0.012371778,0.016515255,-0.011665794,0.002232975,0.002799728,0.275096466,-0.082097997,0.010993617
-0.079155266,-0.270827413,-0.95936799,0.00128974,0.004180372,0.016741037,-0.011867156,-0.000739959,-0.000349035,0.274252468,-0.082321257,0.011097395
-0.079412378,-0.269948095,-0.959594548,-0.000467263,0.004674464,0.017120123,-0.022077676,0.002459478,0.010218815,0.273339139,-0.082568029,0.010766989
-0.079412378,-0.269948095,-0.959594548,-0.000467263,0.004674464,0.017120123,-0.022077676,0.002459478,0.010218815,0.273339139,-0.082568029,0.010766989
-0.079412378,-0.269948095,-0.959594548,-0.000467263,0.004674464,0.017120123,-0.022077676,0.002459478,0.010218815,0.273339139,-0.082568029,0.010766989
-0.0789226,-0.268755704,-0.95996958,0.008488148,0.006533831,0.014092445,0.003822472,-0.006762058,0.00311153,0.272100965,-0.082029164,0.010160361
-0.0789226,-0.268755704,-0.95996958,0.008488148,0.006533831,0.014092445,0.003822472,-0.006762058,0.00311153,0.272100965,-0.082029164,0.010160361
-0.0789226,-0.268755704,-0.95996958,0.008488148,0.006533831,0.014092445,0.003822472,-0.006762058,0.00311153,0.272100965,-0.082029164,0.010160361
-0.079599097,-0.27145642,-0.959153473,0.001504749,0.005206287,0.016816378,0.024212299,-0.006855026,-0.006872661,0.27490596,-0.082799167,0.010625558
-0.079599097,-0.27145642,-0.959153473,0.001504749,0.005206287,0.016816378,0.024212299,-0.006855026,-0.006872661,0.27490596,-0.082799167,0.010625558
-0.079599097,-0.27145642,-0.959153473,0.001504749,0.005206287,0.016816378,0.024212299,-0.006855026,-0.006872661,0.27490596,-0.082799167,0.010625558
-0.079653837,-0.271705121,-0.959078491,0.001498453,0.00151825,0.016893983,0.018918,-0.006494736,-0.003663818,0.275164378,-0.082862293,0.010566751
-0.079653837,-0.271705121,-0.959078491,0.001498453,0.00151825,0.016893983,0.018918,-0.006494736,-0.003663818,0.275164378,-0.082862293,0.010566751
-0.079653837,-0.271705121,-0.959078491,0.001498453,0.00151825,0.016893983,0.018918,-0.006494736,-0.003663818,0.275164378,-0.082862293,0.010566751
-0.079653837,-0.271705121,-0.959078491,0.001498453,0.00151825,0.016893983,0.018918,-0.006494736,-0.003663818,0.275164378,-0.082862293,0.010566751
-0.079653837,-0.271705121,-0.959078491,0.001498453,0.00151825,0.016893983,0.018918,-0.006494736,-0.003663818,0.275164378,-0.082862293,0.010566751
-0.079653837,-0.271705121,-0.959078491,0.001498453,0.00151825,0.016893983,0.018918,-0.006494736,-0.003663818,0.275164378,-0.082862293,0.010566751
-0.079794846,-0.271912098,-0.959008157,0.002921201,0.002961189,0.014031291,0.009509467,-0.008439218,0.006308443,0.275379441,-0.083014375,0.010656824
-0.079794846,-0.271912098,-0.959008157,0.002921201,0.002961189,0.014031291,0.009509467,-0.008439218,0.006308443,0.275379441,-0.083014375,0.010656824
-0.079794846,-0.271912098,-0.959008157,0.002921201,0.002961189,0.014031291,0.009509467,-0.008439218,0.006308443,0.275379441,-0.083014375,0.010656824
-0.080058761,-0.272018105,-0.958956063,0.00259003,-0.002380192,0.016023874,0.002976226,-0.008090829,0.011223946,0.275489611,-0.083292178,0.010851696
-0.080058761,-0.272018105,-0.958956063,0.00259003,-0.002380192,0.016023874,0.002976226,-0.008090829,0.011223946,0.275489611,-0.083292178,0.010851696
-0.080058761,-0.272018105,-0.958956063,0.00259003,-0.002380192,0.016023874,0.002976226,-0.008090829,0.011223946,0.275489611,-0.083292178,0.010851696
-0.080220968,-0.272033453,-0.958938181,0.00278277,0.003357232,0.014754713,0.014477566,-0.005665585,0.005930433,0.275505546,-0.083461703,0.011041628
-0.080409557,-0.272523969,-0.95878309,0.000880912,0.012804657,0.017025828,0.024514955,-0.012217022,0.005313645,0.276015317,-0.083670469,0.011168411
-0.080409557,-0.272523969,-0.95878309,0.000880912,0.012804657,0.017025828,0.024514955,-0.012217022,0.005313645,0.276015317,-0.083670469,0.011168411
-0.080409557,-0.272523969,-0.95878309,0.000880912,0.012804657,0.017025828,0.024514955,-0.012217022,0.005313645,0.276015317,-0.083670469,0.011168411
-0.080409557,-0.272523969,-0.95878309,0.000880912,0.012804657,0.017025828,0.024514955,-0.012217022,0.005313645,0.276015317,-0.083670469,0.011168411
-0.080409557,-0.272523969,-0.95878309,0.000880912,0.012804657,0.017025828,0.024514955,-0.012217022,0.005313645,0.276015317,-0.083670469,0.011168411
-0.080409557,-0.272523969,-0.95878309,0.000880912,0.012804657,0.017025828,0.024514955,-0.012217022,0.005313645,0.276015317,-0.083670469,0.011168411
-0.080409557,-0.272523969,-0.95878309,0.000880912,0.012804657,0.017025828,0.024514955,-0.012217022,0.005313645,0.276015317,-0.083670469,0.011168411
-0.080409557,-0.272523969,-0.95878309,0.000880912,0.012804657,0.017025828,0.024514955,-0.012217022,0.005313645,0.276015317,-0.083670469,0.011168411
-0.080580175,-0.27291593,-0.958657265,0.002806284,0.003156334,0.014351785,0.020797713,-0.011674802,-0.001336268,0.276422715,-0.083858123,0.011262082
-0.080580175,-0.27291593,-0.958657265,0.002806284,0.003156334,0.014351785,0.020797713,-0.011674802,-0.001336268,0.276422715,-0.083858123,0.011262082
-0.080580175,-0.27291593,-0.958657265,0.002806284,0.003156334,0.014351785,0.020797713,-0.011674802,-0.001336268,0.276422715,-0.083858123,0.011262082
-0.080752037,-0.273317933,-0.95852828,-0.000516094,0.001315355,0.015885949,0.012392284,-0.012315014,0.003310042,0.276840623,-0.084047397,0.011330409
-0.080752037,-0.273317933,-0.95852828,-0.000516094,0.001315355,0.015885949,0.012392284,-0.012315014,0.003310042,0.276840623,-0.084047397,0.011330409
-0.080752037,-0.273317933,-0.95852828,-0.000516094,0.001315355,0.015885949,0.012392284,-0.012315014,0.003310042,0.276840623,-0.084047397,0.011330409
-0.080752037,-0.273317933,-0.95852828,-0.000516094,0.001315355,0.015885949,0.012392284,-0.012315014,0.003310042,0.276840623,-0.084047397,0.011330409
-0.080752037,-0.273317933,-0.95852828,-0.000516094,0.001315355,0.015885949,0.012392284,-0.012315014,0.003310042,0.276840623,-0.084047397,0.011330409
-0.080922507,-0.273586929,-0.958437145,0.000905581,0.004330903,0.014665723,0.01564198,-0.00934375,0.002683028,0.277120287,-0.084231953,0.011374293
-0.080922507,-0.273586929,-0.958437145,0.000905581,0.004330903,0.014665723,0.01564198,-0.00934375,0.002683028,0.277120287,-0.084231953,0.011374293
-0.080922507,-0.273586929,-0.958437145,0.000905581,0.004330903,0.014665723,0.01564198,-0.00934375,0.002683028,0.277120287,-0.084231953,0.011374293
-0.080922507,-0.273586929,-0.958437145,0.000905581,0.004330903,0.014665723,0.01564198,-0.00934375,0.002683028,0.277120287,-0.084231953,0.011374293
-0.080922507,-0.273586929,-0.958437145,0.000905581,0.004330903,0.014665723,0.01564198,-0.00934375,0.002683028,0.277120287,-0.084231953,0.011374293
-0.080922507,-0.273586929,-0.958437145,0.000905581,0.004330903,0.014665723,0.01564198,-0.00934375,0.002683028,0.277120287,-0.084231953,0.011374293
-0.080922507,-0.273586929,-0.958437145,0.000905581,0.004330903,0.014665723,0.01564198,-0.00934375,0.002683028,0.277120287,-0.084231953,0.011374293
-0.080922507,-0.273586929,-0.958437145,0.000905581,0.004330903,0.014665723,0.01564198,-0.00934375,0.002683028,0.277120287,-0.084231953,0.011374293
-0.080922507,-0.273586929,-0.958437145,0.000905581,0.004330903,0.014665723,0.01564198,-0.00934375,0.002683028,0.277120287,-0.084231953,0.011374293
-0.081081219,-0.273797274,-0.958363652,0.001232147,0.008340657,0.01648432,0.021295404,-0.006271297,-0.005353061,0.277338954,-0.084402818,0.011427668
-0.081081219,-0.273797274,-0.958363652,0.001232147,0.008340657,0.01648432,0.021295404,-0.006271297,-0.005353061,0.277338954,-0.084402818,0.011427668
-0.081081219,-0.273797274,-0.958363652,0.001232147,0.008340657,0.01648432,0.021295404,-0.006271297,-0.005353061,0.277338954,-0.084402818,0.011427668
-0.081182644,-0.274264395,-0.958221495,-0.00034488,0.001590431,0.018096924,-0.002774578,0.000408699,0.002715518,0.277824678,-0.084520371,0.011506993
-0.081182644,-0.274264395,-0.958221495,-0.00034488,0.001590431,0.018096924,-0.002774578,0.000408699,0.002715518,0.277824678,-0.084520371,0.011506993
-0.081182644,-0.274264395,-0.958221495,-0.00034488,0.001590431,0.018096924,-0.002774578,0.000408699,0.002715518,0.277824678,-0.084520371,0.011506993
-0.081154585,-0.27414903,-0.9582569,-0.000784926,0.003306121,0.015904486,0.00118509,0.006991427,0.001449771,0.277704718,-0.084488197,0.011546605
-0.081154585,-0.27414903,-0.9582569,-0.000784926,0.003306121,0.015904486,0.00118509,0.006991427,0.001449771,0.277704718,-0.084488197,0.011546605
-0.081154585,-0.27414903,-0.9582569,-0.000784926,0.003306121,0.015904486,0.00118509,0.006991427,0.001449771,0.277704718,-0.084488197,0.011546605
-0.081077665,-0.274126649,-0.958269775,0.002678193,0.004672289,0.013735414,-0.004466577,0.000218222,-0.000280911,0.277681436,-0.084407364,0.011545483
-0.081077665,-0.274126649,-0.958269775,0.002678193,0.004672289,0.013735414,-0.004466577,0.000218222,-0.000280911,0.277681436,-0.084407364,0.011545483
-0.080979384,-0.274077386,-0.958292186,0.000458933,0.001479715,0.016397595,-0.012324939,0.005225825,-0.00540952,0.277630213,-0.084303564,0.011436617
-0.080979384,-0.274077386,-0.958292186,0.000458933,0.001479715,0.016397595,-0.012324939,0.005225825,-0.00540952,0.277630213,-0.084303564,0.011436617
-0.080979384,-0.274077386,-0.958292186,0.000458933,0.001479715,0.016397595,-0.012324939,0.005225825,-0.00540952,0.277630213,-0.084303564,0.011436617
-0.080979384,-0.274077386,-0.958292186,0.000458933,0.001479715,0.016397595,-0.012324939,0.005225825,-0.00540952,0.277630213,-0.084303564,0.011436617
-0.081031404,-0.273932636,-0.958329201,0.005134352,0.001716375,0.014817178,-0.015853416,-0.010460339,-0.005714132,0.277479699,-0.084354223,0.011388121
-0.081031404,-0.273932636,-0.958329201,0.005134352,0.001716375,0.014817178,-0.015853416,-0.010460339,-0.005714132,0.277479699,-0.084354223,0.011388121
-0.081031404,-0.273932636,-0.958329201,0.005134352,0.001716375,0.014817178,-0.015853416,-0.010460339,-0.005714132,0.277479699,-0.084354223,0.011388121
-0.081031404,-0.273932636,-0.958329201,0.005134352,0.001716375,0.014817178,-0.015853416,-0.010460339,-0.005714132,0.277479699,-0.084354223,0.011388121
-0.081031404,-0.273932636,-0.958329201,0.005134352,0.001716375,0.014817178,-0.015853416,-0.010460339,-0.005714132,0.277479699,-0.084354223,0.011388121
-0.081031404,-0.273932636,-0.958329201,0.005134352,0.001716375,0.014817178,-0.015853416,-0.010460339,-0.005714132,0.277479699,-0.084354223,0.011388121
-0.080995739,-0.27369374,-0.958400428,-0.004438065,0.00349164,0.016734719,-0.008985016,0.005292499,-0.012906105,0.277231326,-0.084311029,0.011195241
-0.080995739,-0.27369374,-0.958400428,-0.004438065,0.00349164,0.016734719,-0.008985016,0.005292499,-0.012906105,0.277231326,-0.084311029,0.011195241
-0.080995739,-0.27369374,-0.958400428,-0.004438065,0.00349164,0.016734719,-0.008985016,0.005292499,-0.012906105,0.277231326,-0.084311029,0.011195241
-0.080995739,-0.27369374,-0.958400428,-0.004438065,0.00349164,0.016734719,-0.008985016,0.005292499,-0.012906105,0.277231326,-0.084311029,0.011195241
-0.080995739,-0.27369374,-0.958400428,-0.004438065,0.00349164,0.016734719,-0.008985016,0.005292499,-0.012906105,0.277231326,-0.084311029,0.011195241
-0.080899604,-0.273597687,-0.958436012,0.003690273,0.006538838,0.014283121,-0.004269277,-0.004093399,-0.009770446,0.277131444,-0.084208329,0.010968077
-0.080899604,-0.273597687,-0.958436012,0.003690273,0.006538838,0.014283121,-0.004269277,-0.004093399,-0.009770446,0.277131444,-0.084208329,0.010968077
-0.080899604,-0.273597687,-0.958436012,0.003690273,0.006538838,0.014283121,-0.004269277,-0.004093399,-0.009770446,0.277131444,-0.084208329,0.010968077
-0.080899604,-0.273597687,-0.958436012,0.003690273,0.006538838,0.014283121,-0.004269277,-0.004093399,-0.009770446,0.277131444,-0.084208329,0.010968077
-0.080899604,-0.273597687,-0.958436012,0.003690273,0.006538838,0.014283121,-0.004269277,-0.004093399,-0.009770446,0.277131444,-0.084208329,0.010968077
-0.080899604,-0.273597687,-0.958436012,0.003690273,0.006538838,0.014283121,-0.004269277,-0.004093399,-0.009770446,0.277131444,-0.084208329,0.010968077
-0.080937132,-0.273565829,-0.958441913,0.001850992,0.004172474,0.017508626,-0.012187481,-0.004538788,-0.012239303,0.27709834,-0.084246691,0.010748617
-0.080937132,-0.273565829,-0.958441913,0.001850992,0.004172474,0.017508626,-0.012187481,-0.004538788,-0.012239303,0.27709834,-0.084246691,0.010748617
-0.080911733,-0.273372084,-0.958499372,0.001825571,-0.000278533,0.015475631,-0.011072682,-0.001531184,-0.000669732,0.276896923,-0.084215352,0.010588509
-0.080911733,-0.273372084,-0.958499372,0.001825571,-0.000278533,0.015475631,-0.011072682,-0.001531184,-0.000669732,0.276896923,-0.084215352,0.010588509
-0.080911733,-0.273372084,-0.958499372,0.001825571,-0.000278533,0.015475631,-0.011072682,-0.001531184,-0.000669732,0.276896923,-0.084215352,0.010588509
-0.080911733,-0.273372084,-0.958499372,0.001825571,-0.000278533,0.015475631,-0.011072682,-0.001531184,-0.000669732,0.276896923,-0.084215352,0.010588509
-0.08096619,-0.273240447,-0.958532274,0.002398826,0.006044269,0.015584826,-0.004405791,-0.001635375,0.005543157,0.276760062,-0.084268886,0.010663951
-0.08096619,-0.273240447,-0.958532274,0.002398826,0.006044269,0.015584826,-0.004405791,-0.001635375,0.005543157,0.276760062,-0.084268886,0.010663951
-0.08096619,-0.273240447,-0.958532274,0.002398826,0.006044269,0.015584826,-0.004405791,-0.001635375,0.005543157,0.276760062,-0.084268886,0.010663951
-0.08096619,-0.273240447,-0.958532274,0.002398826,0.006044269,0.015584826,-0.004405791,-0.001635375,0.005543157,0.276760062,-0.084268886,0.010663951
-0.08096619,-0.273240447,-0.958532274,0.002398826,0.006044269,0.015584826,-0.004405791,-0.001635375,0.005543157,0.276760062,-0.084268886,0.010663951
-0.08096619,-0.273240447,-0.958532274,0.002398826,0.006044269,0.015584826,-0.004405791,-0.001635375,0.005543157,0.276760062,-0.084268886,0.010663951
-0.081094414,-0.273241222,-0.958521187,0.003076367,0.005312651,0.012460947,0.008354706,-0.000954369,0.017290199,0.276760886,-0.084402678,0.010939611
-0.081094414,-0.273241222,-0.958521187,0.003076367,0.005312651,0.012460947,0.008354706,-0.000954369,0.017290199,0.276760886,-0.084402678,0.010939611
-0.081094414,-0.273241222,-0.958521187,0.003076367,0.005312651,0.012460947,0.008354706,-0.000954369,0.017290199,0.276760886,-0.084402678,0.010939611
-0.08119297,-0.273441881,-0.958455682,0.000886098,0.005116552,0.015203059,0.010835987,-0.002109732,0.010539939,0.276969464,-0.084510516,0.01120638
-0.08119297,-0.273441881,-0.958455682,0.000886098,0.005116552,0.015203059,0.010835987,-0.002109732,0.010539939,0.276969464,-0.084510516,0.01120638
-0.08119297,-0.273441881,-0.958455682,0.000886098,0.005116552,0.015203059,0.010835987,-0.002109732,0.010539939,0.276969464,-0.084510516,0.01120638
-0.081304617,-0.273710281,-0.958369553,0.002264246,0.005324006,0.016215563,0.008415186,-0.005538903,-0.002600045,0.277248519,-0.084633735,0.011321887
-0.081304617,-0.273710281,-0.958369553,0.002264246,0.005324006,0.016215563,0.008415186,-0.005538903,-0.002600045,0.277248519,-0.084633735,0.011321887
-0.081304617,-0.273710281,-0.958369553,0.002264246,0.005324006,0.016215563,0.008415186,-0.005538903,-0.002600045,0.277248519,-0.084633735,0.011321887
-0.081232034,-0.273935825,-0.95831126,0.004160061,0.000880331,0.013639569,-0.002686001,-0.005109614,0.000671915,0.277483038,-0.084563664,0.010969136
-0.081232034,-0.273935825,-0.95831126,0.004160061,0.000880331,0.013639569,-0.002686001,-0.005109614,0.000671915,0.277483038,-0.084563664,0.010969136
-0.081232034,-0.273935825,-0.95831126,0.004160061,0.000880331,0.013639569,-0.002686001,-0.005109614,0.000671915,0.277483038,-0.084563664,0.010969136
-0.081232034,-0.273935825,-0.95831126,0.004160061,0.000880331,0.013639569,-0.002686001,-0.005109614,0.000671915,0.277483038,-0.084563664,0.010969136
-0.081232034,-0.273935825,-0.95831126,0.004160061,0.000880331,0.013639569,-0.002686001,-0.005109614,0.000671915,0.277483038,-0.084563664,0.010969136
-0.081307068,-0.273943365,-0.958302796,0.000527203,0.004275322,0.015584171,0.006296269,-0.000926235,0.007261747,0.277490867,-0.084642148,0.011097588
-0.081307068,-0.273943365,-0.958302796,0.000527203,0.004275322,0.015584171,0.006296269,-0.000926235,0.007261747,0.277490867,-0.084642148,0.011097588
-0.081307068,-0.273943365,-0.958302796,0.000527203,0.004275322,0.015584171,0.006296269,-0.000926235,0.007261747,0.277490867,-0.084642148,0.011097588
-0.081307068,-0.273943365,-0.958302796,0.000527203,0.004275322,0.015584171,0.006296269,-0.000926235,0.007261747,0.277490867,-0.084642148,0.011097588
-0.081307068,-0.273943365,-0.958302796,0.000527203,0.004275322,0.015584171,0.006296269,-0.000926235,0.007261747,0.277490867,-0.084642148,0.011097588
-0.081307068,-0.273943365,-0.958302796,0.000527203,0.004275322,0.015584171,0.006296269,-0.000926235,0.007261747,0.277490867,-0.084642148,0.011097588
-0.081285171,-0.274021715,-0.958282232,0.001527622,0.002949804,0.014449775,-0.004326455,0.001347051,-0.006828932,0.277572349,-0.084621272,0.0110957
-0.081285171,-0.274021715,-0.958282232,0.001527622,0.002949804,0.014449775,-0.004326455,0.001347051,-0.006828932,0.277572349,-0.084621272,0.0110957
-0.081285171,-0.274021715,-0.958282232,0.001527622,0.002949804,0.014449775,-0.004326455,0.001347051,-0.006828932,0.277572349,-0.084621272,0.0110957
-0.081285171,-0.274021715,-0.958282232,0.001527622,0.002949804,0.014449775,-0.004326455,0.001347051,-0.006828932,0.277572349,-0.084621272,0.0110957
-0.081285171,-0.274021715,-0.958282232,0.001527622,0.002949804,0.014449775,-0.004326455,0.001347051,-0.006828932,0.277572349,-0.084621272,0.0110957
-0.081285171,-0.274021715,-0.958282232,0.001527622,0.002949804,0.014449775,-0.004326455,0.001347051,-0.006828932,0.277572349,-0.084621272,0.0110957
-0.081212938,-0.273983449,-0.958299279,0.00069245,0.001690835,0.015275538,-0.0053659,-0.001917852,-0.005883296,0.277532539,-0.08454493,0.010909191
-0.081212938,-0.273983449,-0.958299279,0.00069245,0.001690835,0.015275538,-0.0053659,-0.001917852,-0.005883296,0.277532539,-0.08454493,0.010909191
-0.081212938,-0.273983449,-0.958299279,0.00069245,0.001690835,0.015275538,-0.0053659,-0.001917852,-0.005883296,0.277532539,-0.08454493,0.010909191
-0.081212938,-0.273983449,-0.958299279,0.00069245,0.001690835,0.015275538,-0.0053659,-0.001917852,-0.005883296,0.277532539,-0.08454493,0.010909191
-0.081212938,-0.273983449,-0.958299279,0.00069245,0.001690835,0.015275538,-0.0053659,-0.001917852,-0.005883296,0.277532539,-0.08454493,0.010909191
-0.081212938,-0.273983449,-0.958299279,0.00069245,0.001690835,0.015275538,-0.0053659,-0.001917852,-0.005883296,0.277532539,-0.08454493,0.010909191
-0.081149086,-0.273912191,-0.958325088,0.003939733,0.003496349,0.011898637,-0.006818069,0.000691297,-0.005097717,0.277458453,-0.084476511,0.010809424
-0.081149086,-0.273912191,-0.958325088,0.003939733,0.003496349,0.011898637,-0.006818069,0.000691297,-0.005097717,0.277458453,-0.084476511,0.010809424
-0.081149086,-0.273912191,-0.958325088,0.003939733,0.003496349,0.011898637,-0.006818069,0.000691297,-0.005097717,0.277458453,-0.084476511,0.010809424
-0.081149086,-0.273912191,-0.958325088,0.003939733,0.003496349,0.011898637,-0.006818069,0.000691297,-0.005097717,0.277458453,-0.084476511,0.010809424
-0.081149086,-0.273912191,-0.958325088,0.003939733,0.003496349,0.011898637,-0.006818069,0.000691297,-0.005097717,0.277458453,-0.084476511,0.010809424
-0.081149086,-0.273912191,-0.958325088,0.003939733,0.003496349,0.011898637,-0.006818069,0.000691297,-0.005097717,0.277458453,-0.084476511,0.010809424
-0.081149086,-0.273912191,-0.958325088,0.003939733,0.003496349,0.011898637,-0.006818069,0.000691297,-0.005097717,0.277458453,-0.084476511,0.010809424
-0.081149086,-0.273912191,-0.958325088,0.003939733,0.003496349,0.011898637,-0.006818069,0.000691297,-0.005097717,0.277458453,-0.084476511,0.010809424
-0.081149086,-0.273912191,-0.958325088,0.003939733,0.003496349,0.011898637,-0.006818069,0.000691297,-0.005097717,0.277458453,-0.084476511,0.010809424
-0.081107371,-0.273766339,-0.958370268,0.001090407,0.004143953,0.014522552,-0.007654848,0.000392889,-0.002105176,0.277306799,-0.084429329,0.010766146
-0.081107371,-0.273766339,-0.958370268,0.001090407,0.004143953,0.014522552,-0.007654848,0.000392889,-0.002105176,0.277306799,-0.084429329,0.010766146
-0.081107371,-0.273766339,-0.958370268,0.001090407,0.004143953,0.014522552,-0.007654848,0.000392889,-0.002105176,0.277306799,-0.084429329,0.010766146
-0.081124045,-0.2737028,-0.958387017,0.001061305,0.004782319,0.01455456,-0.005934365,0.002406649,0.001527696,0.277240747,-0.08444514,0.01078252
-0.081124045,-0.2737028,-0.958387017,0.001061305,0.004782319,0.01455456,-0.005934365,0.002406649,0.001527696,0.277240747,-0.08444514,0.01078252
-0.081124045,-0.2737028,-0.958387017,0.001061305,0.004782319,0.01455456,-0.005934365,0.002406649,0.001527696,0.277240747,-0.08444514,0.01078252
-0.081124045,-0.2737028,-0.958387017,0.001061305,0.004782319,0.01455456,-0.005934365,0.002406649,0.001527696,0.277240747,-0.08444514,0.01078252
-0.081124045,-0.2737028,-0.958387017,0.001061305,0.004782319,0.01455456,-0.005934365,0.002406649,0.001527696,0.277240747,-0.08444514,0.01078252
-0.081124045,-0.2737028,-0.958387017,0.001061305,0.004782319,0.01455456,-0.005934365,0.002406649,0.001527696,0.277240747,-0.08444514,0.01078252
-0.081124045,-0.2737028,-0.958387017,0.001061305,0.004782319,0.01455456,-0.005934365,0.002406649,0.001527696,0.277240747,-0.08444514,0.01078252
-0.081124045,-0.2737028,-0.958387017,0.001061305,0.004782319,0.01455456,-0.005934365,0.002406649,0.001527696,0.277240747,-0.08444514,0.01078252
-0.081050284,-0.273676068,-0.958400905,-0.001026601,0.005152375,0.0149194,-0.004850938,-0.000117349,0.001485298,0.277212944,-0.084367504,0.010803908
-0.081050284,-0.273676068,-0.958400905,-0.001026601,0.005152375,0.0149194,-0.004850938,-0.000117349,0.001485298,0.277212944,-0.084367504,0.010803908
-0.081050284,-0.273676068,-0.958400905,-0.001026601,0.005152375,0.0149194,-0.004850938,-0.000117349,0.001485298,0.277212944,-0.084367504,0.010803908
-0.081050284,-0.273676068,-0.958400905,-0.001026601,0.005152375,0.0149194,-0.004850938,-0.000117349,0.001485298,0.277212944,-0.084367504,0.010803908
-0.081022061,-0.273593396,-0.958426893,0.003614366,0.003986329,0.014579177,-0.006245063,-0.002167268,0.000881186,0.277126985,-0.084335988,0.010820811
-0.080964252,-0.273386747,-0.958490729,-0.001875594,0.002497882,0.014108956,-0.008682454,0.008070759,0.004522526,0.276912154,-0.084270512,0.010731807
-0.080964252,-0.273386747,-0.958490729,-0.001875594,0.002497882,0.014108956,-0.008682454,0.008070759,0.004522526,0.276912154,-0.084270512,0.010731807
-0.080964252,-0.273386747,-0.958490729,-0.001875594,0.002497882,0.014108956,-0.008682454,0.008070759,0.004522526,0.276912154,-0.084270512,0.010731807
-0.080914773,-0.273217976,-0.958543003,0.006268911,0.004160225,0.011490941,-0.010184145,0.004435507,-0.009690764,0.276736695,-0.08421468,0.010737236
-0.080914773,-0.273217976,-0.958543003,0.006268911,0.004160225,0.011490941,-0.010184145,0.004435507,-0.009690764,0.276736695,-0.08421468,0.010737236
-0.080914773,-0.273217976,-0.958543003,0.006268911,0.004160225,0.011490941,-0.010184145,0.004435507,-0.009690764,0.276736695,-0.08421468,0.010737236
-0.080914773,-0.273217976,-0.958543003,0.006268911,0.004160225,0.011490941,-0.010184145,0.004435507,-0.009690764,0.276736695,-0.08421468,0.010737236
-0.080914773,-0.273217976,-0.958543003,0.006268911,0.004160225,0.011490941,-0.010184145,0.004435507,-0.009690764,0.276736695,-0.08421468,0.010737236
-0.080914773,-0.273217976,-0.958543003,0.006268911,0.004160225,0.011490941,-0.010184145,0.004435507,-0.009690764,0.276736695,-0.08421468,0.010737236
-0.080730051,-0.273019791,-0.958615065,-0.004688509,0.003107548,0.019848526,-0.005912008,0.005317571,-0.015636962,0.276530681,-0.084017045,0.010472281
-0.080730051,-0.273019791,-0.958615065,-0.004688509,0.003107548,0.019848526,-0.005912008,0.005317571,-0.015636962,0.276530681,-0.084017045,0.010472281
-0.080730051,-0.273019791,-0.958615065,-0.004688509,0.003107548,0.019848526,-0.005912008,0.005317571,-0.015636962,0.276530681,-0.084017045,0.010472281
-0.080603831,-0.272993922,-0.958633065,0.006507292,0.007384658,0.012984812,0.001240284,0.003023765,-0.008481689,0.2765038,-0.083884738,0.010220431
-0.080603831,-0.272993922,-0.958633065,0.006507292,0.007384658,0.012984812,0.001240284,0.003023765,-0.008481689,0.2765038,-0.083884738,0.010220431
-0.080603831,-0.272993922,-0.958633065,0.006507292,0.007384658,0.012984812,0.001240284,0.003023765,-0.008481689,0.2765038,-0.083884738,0.010220431
-0.080531552,-0.272984207,-0.958641887,0.001552179,0.005162358,0.014885724,-0.003607402,0.00312413,0.001242044,0.276493685,-0.083809097,0.010172538
-0.080531552,-0.272984207,-0.958641887,0.001552179,0.005162358,0.014885724,-0.003607402,0.00312413,0.001242044,0.276493685,-0.083809097,0.010172538
-0.080531552,-0.272984207,-0.958641887,0.001552179,0.005162358,0.014885724,-0.003607402,0.00312413,0.001242044,0.276493685,-0.083809097,0.010172538
-0.080531552,-0.272984207,-0.958641887,0.001552179,0.005162358,0.014885724,-0.003607402,0.00312413,0.001242044,0.276493685,-0.083809097,0.010172538
-0.080531552,-0.272984207,-0.958641887,0.001552179,0.005162358,0.014885724,-0.003607402,0.00312413,0.001242044,0.276493685,-0.083809097,0.010172538
-0.080531552,-0.272984207,-0.958641887,0.001552179,0.005162358,0.014885724,-0.003607402,0.00312413,0.001242044,0.276493685,-0.083809097,0.010172538
-0.080531552,-0.272984207,-0.958641887,0.001552179,0.005162358,0.014885724,-0.003607402,0.00312413,0.001242044,0.276493685,-0.083809097,0.010172538
-0.080531552,-0.272984207,-0.958641887,0.001552179,0.005162358,0.014885724,-0.003607402,0.00312413,0.001242044,0.276493685,-0.083809097,0.010172538
-0.08058425,-0.272898525,-0.958661854,0.005816303,0.003855973,0.013562918,-0.002517796,-0.005411326,0.005900606,0.276404633,-0.083861943,0.010291511
-0.08058425,-0.272898525,-0.958661854,0.005816303,0.003855973,0.013562918,-0.002517796,-0.005411326,0.005900606,0.276404633,-0.083861943,0.010291511
-0.08058425,-0.272898525,-0.958661854,0.005816303,0.003855973,0.013562918,-0.002517796,-0.005411326,0.005900606,0.276404633,-0.083861943,0.010291511
-0.08058425,-0.272898525,-0.958661854,0.005816303,0.003855973,0.013562918,-0.002517796,-0.005411326,0.005900606,0.276404633,-0.083861943,0.010291511
-0.08058425,-0.272898525,-0.958661854,0.005816303,0.003855973,0.013562918,-0.002517796,-0.005411326,0.005900606,0.276404633,-0.083861943,0.010291511
-0.08058425,-0.272898525,-0.958661854,0.005816303,0.003855973,0.013562918,-0.002517796,-0.005411326,0.005900606,0.276404633,-0.083861943,0.010291511
-0.080810227,-0.272972405,-0.9586218,0.001388371,0.005440533,0.014865637,0.007101835,-0.009527241,0.0118614,0.276481416,-0.084099509,0.010509568
-0.080810227,-0.272972405,-0.9586218,0.001388371,0.005440533,0.014865637,0.007101835,-0.009527241,0.0118614,0.276481416,-0.084099509,0.010509568
-0.080810227,-0.272972405,-0.9586218,0.001388371,0.005440533,0.014865637,0.007101835,-0.009527241,0.0118614,0.276481416,-0.084099509,0.010509568
-0.080810227,-0.272972405,-0.9586218,0.001388371,0.005440533,0.014865637,0.007101835,-0.009527241,0.0118614,0.276481416,-0.084099509,0.010509568
-0.080810227,-0.272972405,-0.9586218,0.001388371,0.005440533,0.014865637,0.007101835,-0.009527241,0.0118614,0.276481416,-0.084099509,0.010509568
-0.080810227,-0.272972405,-0.9586218,0.001388371,0.005440533,0.014865637,0.007101835,-0.009527241,0.0118614,0.276481416,-0.084099509,0.010509568
-0.080810227,-0.272972405,-0.9586218,0.001388371,0.005440533,0.014865637,0.007101835,-0.009527241,0.0118614,0.276481416,-0.084099509,0.010509568
-0.080810227,-0.272972405,-0.9586218,0.001388371,0.005440533,0.014865637,0.007101835,-0.009527241,0.0118614,0.276481416,-0.084099509,0.010509568
-0.081118532,-0.273093194,-0.958561361,0.006808348,0.0045847,0.012241721,0.012640997,-0.016516827,0.004818883,0.276606982,-0.084424137,0.010765474
-0.081118532,-0.273093194,-0.958561361,0.006808348,0.0045847,0.012241721,0.012640997,-0.016516827,0.004818883,0.276606982,-0.084424137,0.010765474
-0.081118532,-0.273093194,-0.958561361,0.006808348,0.0045847,0.012241721,0.012640997,-0.016516827,0.004818883,0.276606982,-0.084424137,0.010765474
-0.081118532,-0.273093194,-0.958561361,0.006808348,0.0045847,0.012241721,0.012640997,-0.016516827,0.004818883,0.276606982,-0.084424137,0.010765474
-0.081323236,-0.27328065,-0.95849061,-0.004659913,0.007595032,0.017008007,0.012381139,-0.011442744,4.69E-06,0.276801856,-0.08464239,0.010828561
-0.081323236,-0.27328065,-0.95849061,-0.004659913,0.007595032,0.017008007,0.012381139,-0.011442744,4.69E-06,0.276801856,-0.08464239,0.010828561
-0.081323236,-0.27328065,-0.95849061,-0.004659913,0.007595032,0.017008007,0.012381139,-0.011442744,4.69E-06,0.276801856,-0.08464239,0.010828561
-0.081323236,-0.27328065,-0.95849061,-0.004659913,0.007595032,0.017008007,0.012381139,-0.011442744,4.69E-06,0.276801856,-0.08464239,0.010828561
-0.081323236,-0.27328065,-0.95849061,-0.004659913,0.007595032,0.017008007,0.012381139,-0.011442744,4.69E-06,0.276801856,-0.08464239,0.010828561
-0.081323236,-0.27328065,-0.95849061,-0.004659913,0.007595032,0.017008007,0.012381139,-0.011442744,4.69E-06,0.276801856,-0.08464239,0.010828561
-0.081323236,-0.27328065,-0.95849061,-0.004659913,0.007595032,0.017008007,0.012381139,-0.011442744,4.69E-06,0.276801856,-0.08464239,0.010828561
-0.081323236,-0.27328065,-0.95849061,-0.004659913,0.007595032,0.017008007,0.012381139,-0.011442744,4.69E-06,0.276801856,-0.08464239,0.010828561
-0.081323236,-0.27328065,-0.95849061,-0.004659913,0.007595032,0.017008007,0.012381139,-0.011442744,4.69E-06,0.276801856,-0.08464239,0.010828561
-0.081477404,-0.273519933,-0.95840925,0.004191756,0.002661616,0.011723399,0.009909086,-0.012024039,-0.000374974,0.277050634,-0.084809245,0.010842473
-0.081477404,-0.273519933,-0.95840925,0.004191756,0.002661616,0.011723399,0.009909086,-0.012024039,-0.000374974,0.277050634,-0.084809245,0.010842473
-0.081477404,-0.273519933,-0.95840925,0.004191756,0.002661616,0.011723399,0.009909086,-0.012024039,-0.000374974,0.277050634,-0.084809245,0.010842473
-0.081477404,-0.273519933,-0.95840925,0.004191756,0.002661616,0.011723399,0.009909086,-0.012024039,-0.000374974,0.277050634,-0.084809245,0.010842473
-0.081477404,-0.273519933,-0.95840925,0.004191756,0.002661616,0.011723399,0.009909086,-0.012024039,-0.000374974,0.277050634,-0.084809245,0.010842473
-0.081606209,-0.273802429,-0.958317637,-0.001706652,0.008971334,0.015461743,0.025471535,-0.003753326,0.015153918,0.277344332,-0.084950761,0.011025355
-0.081606209,-0.273802429,-0.958317637,-0.001706652,0.008971334,0.015461743,0.025471535,-0.003753326,0.015153918,0.277344332,-0.084950761,0.011025355
-0.081606209,-0.273802429,-0.958317637,-0.001706652,0.008971334,0.015461743,0.025471535,-0.003753326,0.015153918,0.277344332,-0.084950761,0.011025355
-0.081606425,-0.274407893,-0.958144426,0.003374733,0.010065049,0.015105426,0.043124713,0.008003356,0.013227709,0.277973915,-0.084966262,0.011378535
-0.081606425,-0.274407893,-0.958144426,0.003374733,0.010065049,0.015105426,0.043124713,0.008003356,0.013227709,0.277973915,-0.084966262,0.011378535
-0.081429519,-0.275160253,-0.957943678,-0.003729641,0.008955896,0.016186416,0.040156178,0.0217163,0.001400982,0.278756381,-0.084800636,0.011650417
-0.081429519,-0.275160253,-0.957943678,-0.003729641,0.008955896,0.016186416,0.040156178,0.0217163,0.001400982,0.278756381,-0.084800636,0.011650417
-0.081429519,-0.275160253,-0.957943678,-0.003729641,0.008955896,0.016186416,0.040156178,0.0217163,0.001400982,0.278756381,-0.084800636,0.011650417
-0.081429519,-0.275160253,-0.957943678,-0.003729641,0.008955896,0.016186416,0.040156178,0.0217163,0.001400982,0.278756381,-0.084800636,0.011650417
-0.081429519,-0.275160253,-0.957943678,-0.003729641,0.008955896,0.016186416,0.040156178,0.0217163,0.001400982,0.278756381,-0.084800636,0.011650417
-0.081429519,-0.275160253,-0.957943678,-0.003729641,0.008955896,0.016186416,0.040156178,0.0217163,0.001400982,0.278756381,-0.084800636,0.011650417
-0.081429519,-0.275160253,-0.957943678,-0.003729641,0.008955896,0.016186416,0.040156178,0.0217163,0.001400982,0.278756381,-0.084800636,0.011650417
-0.081012808,-0.27585727,-0.957778513,0.00127051,-0.001226604,0.014007092,0.033881187,0.013572208,-0.002955097,0.279481479,-0.084383217,0.011628604
-0.081012808,-0.27585727,-0.957778513,0.00127051,-0.001226604,0.014007092,0.033881187,0.013572208,-0.002955097,0.279481479,-0.084383217,0.011628604
-0.080923282,-0.27631861,-0.957653105,0.0055755,0.00158453,0.012462616,0.021734439,0.002043904,-0.013016254,0.279961452,-0.084301393,0.011593455
-0.080923282,-0.27631861,-0.957653105,0.0055755,0.00158453,0.012462616,0.021734439,0.002043904,-0.013016254,0.279961452,-0.084301393,0.011593455
-0.080923282,-0.27631861,-0.957653105,0.0055755,0.00158453,0.012462616,0.021734439,0.002043904,-0.013016254,0.279961452,-0.084301393,0.011593455
-0.080569223,-0.276562929,-0.957612395,-0.00440684,0.000196218,0.014939606,0.014488405,0.021773472,-0.010143128,0.280215673,-0.083937837,0.011418868
-0.080569223,-0.276562929,-0.957612395,-0.00440684,0.000196218,0.014939606,0.014488405,0.021773472,-0.010143128,0.280215673,-0.083937837,0.011418868
-0.080569223,-0.276562929,-0.957612395,-0.00440684,0.000196218,0.014939606,0.014488405,0.021773472,-0.010143128,0.280215673,-0.083937837,0.011418868
-0.080569223,-0.276562929,-0.957612395,-0.00440684,0.000196218,0.014939606,0.014488405,0.021773472,-0.010143128,0.280215673,-0.083937837,0.011418868
-0.080569223,-0.276562929,-0.957612395,-0.00440684,0.000196218,0.014939606,0.014488405,0.021773472,-0.010143128,0.280215673,-0.083937837,0.011418868
-0.08018779,-0.276659995,-0.957616389,-0.000271671,0.003238261,0.01619482,0.013556739,0.026128791,-0.0079669,0.280316709,-0.08354196,0.011227629
-0.08018779,-0.276659995,-0.957616389,-0.000271671,0.003238261,0.01619482,0.013556739,0.026128791,-0.0079669,0.280316709,-0.08354196,0.011227629
-0.08018779,-0.276659995,-0.957616389,-0.000271671,0.003238261,0.01619482,0.013556739,0.026128791,-0.0079669,0.280316709,-0.08354196,0.011227629
-0.08018779,-0.276659995,-0.957616389,-0.000271671,0.003238261,0.01619482,0.013556739,0.026128791,-0.0079669,0.280316709,-0.08354196,0.011227629
-0.08018779,-0.276659995,-0.957616389,-0.000271671,0.003238261,0.01619482,0.013556739,0.026128791,-0.0079669,0.280316709,-0.08354196,0.011227629
-0.08018779,-0.276659995,-0.957616389,-0.000271671,0.003238261,0.01619482,0.013556739,0.026128791,-0.0079669,0.280316709,-0.08354196,0.011227629
-0.079799987,-0.277106643,-0.95751965,0.001400471,0.007743716,0.0133515,0.026273666,0.010078419,-0.006097627,0.280781525,-0.083148161,0.011109465
-0.079799987,-0.277106643,-0.95751965,0.001400471,0.007743716,0.0133515,0.026273666,0.010078419,-0.006097627,0.280781525,-0.083148161,0.011109465
-0.079799987,-0.277106643,-0.95751965,0.001400471,0.007743716,0.0133515,0.026273666,0.010078419,-0.006097627,0.280781525,-0.083148161,0.011109465
-0.079799987,-0.277106643,-0.95751965,0.001400471,0.007743716,0.0133515,0.026273666,0.010078419,-0.006097627,0.280781525,-0.083148161,0.011109465
-0.079799987,-0.277106643,-0.95751965,0.001400471,0.007743716,0.0133515,0.026273666,0.010078419,-0.006097627,0.280781525,-0.083148161,0.011109465
-0.079799987,-0.277106643,-0.95751965,0.001400471,0.007743716,0.0133515,0.026273666,0.010078419,-0.006097627,0.280781525,-0.083148161,0.011109465
-0.079646669,-0.277572602,-0.957397461,0.005748488,0.001312703,0.010299623,0.011390496,0.001943733,-0.008247703,0.281266489,-0.08299969,0.011008918
-0.079646669,-0.277572602,-0.957397461,0.005748488,0.001312703,0.010299623,0.011390496,0.001943733,-0.008247703,0.281266489,-0.08299969,0.011008918
-0.079646669,-0.277572602,-0.957397461,0.005748488,0.001312703,0.010299623,0.011390496,0.001943733,-0.008247703,0.281266489,-0.08299969,0.011008918
-0.079646669,-0.277572602,-0.957397461,0.005748488,0.001312703,0.010299623,0.011390496,0.001943733,-0.008247703,0.281266489,-0.08299969,0.011008918
-0.079646669,-0.277572602,-0.957397461,0.005748488,0.001312703,0.010299623,0.011390496,0.001943733,-0.008247703,0.281266489,-0.08299969,0.011008918
-0.079646669,-0.277572602,-0.957397461,0.005748488,0.001312703,0.010299623,0.011390496,0.001943733,-0.008247703,0.281266489,-0.08299969,0.011008918
-0.079646669,-0.277572602,-0.957397461,0.005748488,0.001312703,0.010299623,0.011390496,0.001943733,-0.008247703,0.281266489,-0.08299969,0.011008918
-0.079646669,-0.277572602,-0.957397461,0.005748488,0.001312703,0.010299623,0.011390496,0.001943733,-0.008247703,0.281266489,-0.08299969,0.011008918
-0.079646669,-0.277572602,-0.957397461,0.005748488,0.001312703,0.010299623,0.011390496,0.001943733,-0.008247703,0.281266489,-0.08299969,0.011008918
-0.079675078,-0.277619898,-0.957381368,5.49E-05,-0.004728228,0.014830649,-0.010590808,-0.003490642,-0.005788967,0.281315734,-0.083030547,0.010876396
-0.079675078,-0.277619898,-0.957381368,5.49E-05,-0.004728228,0.014830649,-0.010590808,-0.003490642,-0.005788967,0.281315734,-0.083030547,0.010876396
-0.079675078,-0.277619898,-0.957381368,5.49E-05,-0.004728228,0.014830649,-0.010590808,-0.003490642,-0.005788967,0.281315734,-0.083030547,0.010876396
-0.079675078,-0.277619898,-0.957381368,5.49E-05,-0.004728228,0.014830649,-0.010590808,-0.003490642,-0.005788967,0.281315734,-0.083030547,0.010876396
-0.079675078,-0.277619898,-0.957381368,5.49E-05,-0.004728228,0.014830649,-0.010590808,-0.003490642,-0.005788967,0.281315734,-0.083030547,0.010876396
-0.079675078,-0.277619898,-0.957381368,5.49E-05,-0.004728228,0.014830649,-0.010590808,-0.003490642,-0.005788967,0.281315734,-0.083030547,0.010876396
-0.079675078,-0.277619898,-0.957381368,5.49E-05,-0.004728228,0.014830649,-0.010590808,-0.003490642,-0.005788967,0.281315734,-0.083030547,0.010876396
-0.079675078,-0.277619898,-0.957381368,5.49E-05,-0.004728228,0.014830649,-0.010590808,-0.003490642,-0.005788967,0.281315734,-0.083030547,0.010876396
-0.079792224,-0.277414262,-0.957431197,0.00340686,2.52E-05,0.012271225,-0.005614626,-0.005733592,0.006845069,0.281101675,-0.083147755,0.010840202
-0.079792224,-0.277414262,-0.957431197,0.00340686,2.52E-05,0.012271225,-0.005614626,-0.005733592,0.006845069,0.281101675,-0.083147755,0.010840202
-0.079792224,-0.277414262,-0.957431197,0.00340686,2.52E-05,0.012271225,-0.005614626,-0.005733592,0.006845069,0.281101675,-0.083147755,0.010840202
-0.079792224,-0.277414262,-0.957431197,0.00340686,2.52E-05,0.012271225,-0.005614626,-0.005733592,0.006845069,0.281101675,-0.083147755,0.010840202
-0.079955056,-0.277375132,-0.957428992,0.004439466,0.006516904,0.01391691,0.006908516,-0.004982242,0.00063362,0.281060956,-0.083316848,0.01105019
-0.079955056,-0.277375132,-0.957428992,0.004439466,0.006516904,0.01391691,0.006908516,-0.004982242,0.00063362,0.281060956,-0.083316848,0.01105019
-0.079955056,-0.277375132,-0.957428992,0.004439466,0.006516904,0.01391691,0.006908516,-0.004982242,0.00063362,0.281060956,-0.083316848,0.01105019
-0.079955056,-0.277375132,-0.957428992,0.004439466,0.006516904,0.01391691,0.006908516,-0.004982242,0.00063362,0.281060956,-0.083316848,0.01105019
-0.079955056,-0.277375132,-0.957428992,0.004439466,0.006516904,0.01391691,0.006908516,-0.004982242,0.00063362,0.281060956,-0.083316848,0.01105019
-0.079955056,-0.277375132,-0.957428992,0.004439466,0.006516904,0.01391691,0.006908516,-0.004982242,0.00063362,0.281060956,-0.083316848,0.01105019
-0.079955056,-0.277375132,-0.957428992,0.004439466,0.006516904,0.01391691,0.006908516,-0.004982242,0.00063362,0.281060956,-0.083316848,0.01105019
-0.079955056,-0.277375132,-0.957428992,0.004439466,0.006516904,0.01391691,0.006908516,-0.004982242,0.00063362,0.281060956,-0.083316848,0.01105019
-0.079831511,-0.277637511,-0.957363248,-0.006243184,0.011555195,0.017009795,0.013421636,0.00195775,-0.010881517,0.281334049,-0.083194385,0.01090584
-0.079831511,-0.277637511,-0.957363248,-0.006243184,0.011555195,0.017009795,0.013421636,0.00195775,-0.010881517,0.281334049,-0.083194385,0.01090584
-0.079831511,-0.277637511,-0.957363248,-0.006243184,0.011555195,0.017009795,0.013421636,0.00195775,-0.010881517,0.281334049,-0.083194385,0.01090584
-0.079831511,-0.277637511,-0.957363248,-0.006243184,0.011555195,0.017009795,0.013421636,0.00195775,-0.010881517,0.281334049,-0.083194385,0.01090584
-0.079831511,-0.277637511,-0.957363248,-0.006243184,0.011555195,0.017009795,0.013421636,0.00195775,-0.010881517,0.281334049,-0.083194385,0.01090584
-0.079831511,-0.277637511,-0.957363248,-0.006243184,0.011555195,0.017009795,0.013421636,0.00195775,-0.010881517,0.281334049,-0.083194385,0.01090584
-0.079831511,-0.277637511,-0.957363248,-0.006243184,0.011555195,0.017009795,0.013421636,0.00195775,-0.010881517,0.281334049,-0.083194385,0.01090584
-0.079866834,-0.27794528,-0.95727098,0.007433496,0.001715899,0.012599289,0.0016992,-0.010419823,-0.009863922,0.281654429,-0.083239012,0.010646076
-0.079866834,-0.27794528,-0.95727098,0.007433496,0.001715899,0.012599289,0.0016992,-0.010419823,-0.009863922,0.281654429,-0.083239012,0.010646076
-0.079866834,-0.27794528,-0.95727098,0.007433496,0.001715899,0.012599289,0.0016992,-0.010419823,-0.009863922,0.281654429,-0.083239012,0.010646076
-0.079866834,-0.27794528,-0.95727098,0.007433496,0.001715899,0.012599289,0.0016992,-0.010419823,-0.009863922,0.281654429,-0.083239012,0.010646076
-0.079866834,-0.27794528,-0.95727098,0.007433496,0.001715899,0.012599289,0.0016992,-0.010419823,-0.009863922,0.281654429,-0.083239012,0.010646076
-0.079866834,-0.27794528,-0.95727098,0.007433496,0.001715899,0.012599289,0.0016992,-0.010419823,-0.009863922,0.281654429,-0.083239012,0.010646076
-0.079866834,-0.27794528,-0.95727098,0.007433496,0.001715899,0.012599289,0.0016992,-0.010419823,-0.009863922,0.281654429,-0.083239012,0.010646076
-0.079866834,-0.27794528,-0.95727098,0.007433496,0.001715899,0.012599289,0.0016992,-0.010419823,-0.009863922,0.281654429,-0.083239012,0.010646076
-0.079960503,-0.277998626,-0.957247674,0.000813305,0.0006859,0.014666438,-0.007159539,-0.006807246,-0.007898776,0.281709988,-0.083338201,0.010465453
-0.079960503,-0.277998626,-0.957247674,0.000813305,0.0006859,0.014666438,-0.007159539,-0.006807246,-0.007898776,0.281709988,-0.083338201,0.010465453
-0.079960503,-0.277998626,-0.957247674,0.000813305,0.0006859,0.014666438,-0.007159539,-0.006807246,-0.007898776,0.281709988,-0.083338201,0.010465453
-0.080154583,-0.277818143,-0.957283854,0.003937073,0.001756608,0.01229167,-0.007387319,-0.015884291,-0.000234519,0.281522091,-0.083536404,0.01035355
-0.080154583,-0.277818143,-0.957283854,0.003937073,0.001756608,0.01229167,-0.007387319,-0.015884291,-0.000234519,0.281522091,-0.083536404,0.01035355
-0.080154583,-0.277818143,-0.957283854,0.003937073,0.001756608,0.01229167,-0.007387319,-0.015884291,-0.000234519,0.281522091,-0.083536404,0.01035355
-0.080431707,-0.277656585,-0.957307458,-0.000561804,0.003944904,0.014710963,0.003712842,-0.006758463,0.000595482,0.281353918,-0.08382181,0.010354109
-0.080431707,-0.277656585,-0.957307458,-0.000561804,0.003944904,0.014710963,0.003712842,-0.006758463,0.000595482,0.281353918,-0.08382181,0.010354109
-0.080431707,-0.277656585,-0.957307458,-0.000561804,0.003944904,0.014710963,0.003712842,-0.006758463,0.000595482,0.281353918,-0.08382181,0.010354109
-0.080431707,-0.277656585,-0.957307458,-0.000561804,0.003944904,0.014710963,0.003712842,-0.006758463,0.000595482,0.281353918,-0.08382181,0.010354109
-0.080431707,-0.277656585,-0.957307458,-0.000561804,0.003944904,0.014710963,0.003712842,-0.006758463,0.000595482,0.281353918,-0.08382181,0.010354109
-0.080431707,-0.277656585,-0.957307458,-0.000561804,0.003944904,0.014710963,0.003712842,-0.006758463,0.000595482,0.281353918,-0.08382181,0.010354109
-0.080455333,-0.277739257,-0.95728147,0.003505424,0.006179124,0.014532387,0.006470187,0.001253065,0.000861426,0.281439974,-0.083848581,0.010404753
-0.080455333,-0.277739257,-0.95728147,0.003505424,0.006179124,0.014532387,0.006470187,0.001253065,0.000861426,0.281439974,-0.083848581,0.010404753
-0.080455333,-0.277739257,-0.95728147,0.003505424,0.006179124,0.014532387,0.006470187,0.001253065,0.000861426,0.281439974,-0.083848581,0.010404753
-0.080455333,-0.277739257,-0.95728147,0.003505424,0.006179124,0.014532387,0.006470187,0.001253065,0.000861426,0.281439974,-0.083848581,0.010404753
-0.080455333,-0.277739257,-0.95728147,0.003505424,0.006179124,0.014532387,0.006470187,0.001253065,0.000861426,0.281439974,-0.083848581,0.010404753
-0.080455333,-0.277739257,-0.95728147,0.003505424,0.006179124,0.014532387,0.006470187,0.001253065,0.000861426,0.281439974,-0.083848581,0.010404753
-0.080298632,-0.277934611,-0.957237959,-0.000160806,0.002010494,0.015236497,0.007255553,0.008369298,0.002123232,0.281643338,-0.083689824,0.01037954
-0.080298632,-0.277934611,-0.957237959,-0.000160806,0.002010494,0.015236497,0.007255553,0.008369298,0.002123232,0.281643338,-0.083689824,0.01037954
-0.080298632,-0.277934611,-0.957237959,-0.000160806,0.002010494,0.015236497,0.007255553,0.008369298,0.002123232,0.281643338,-0.083689824,0.01037954
-0.080298632,-0.277934611,-0.957237959,-0.000160806,0.002010494,0.015236497,0.007255553,0.008369298,0.002123232,0.281643338,-0.083689824,0.01037954
-0.080298632,-0.277934611,-0.957237959,-0.000160806,0.002010494,0.015236497,0.007255553,0.008369298,0.002123232,0.281643338,-0.083689824,0.01037954
-0.080266625,-0.278054088,-0.957205951,0.006734677,0.002191007,0.011756003,0.003374329,-0.001781861,-0.000151907,0.281767719,-0.083659406,0.010453436
-0.080266625,-0.278054088,-0.957205951,0.006734677,0.002191007,0.011756003,0.003374329,-0.001781861,-0.000151907,0.281767719,-0.083659406,0.010453436
-0.080266625,-0.278054088,-0.957205951,0.006734677,0.002191007,0.011756003,0.003374329,-0.001781861,-0.000151907,0.281767719,-0.083659406,0.010453436
-0.080251642,-0.278057247,-0.957206249,-0.001092806,0.005123854,0.016318738,-0.001514197,-0.000381884,-0.002003442,0.281771007,-0.083643828,0.010467956
-0.080251642,-0.278057247,-0.957206249,-0.001092806,0.005123854,0.016318738,-0.001514197,-0.000381884,-0.002003442,0.281771007,-0.083643828,0.010467956
-0.080251642,-0.278057247,-0.957206249,-0.001092806,0.005123854,0.016318738,-0.001514197,-0.000381884,-0.002003442,0.281771007,-0.083643828,0.010467956
-0.080323435,-0.278000683,-0.95721668,0.002168074,0.003022611,0.012453437,0.002453633,-0.006251141,0.007463775,0.281712132,-0.083717403,0.010473441
-0.080508001,-0.27800563,-0.957199752,0.004626207,0.00351584,0.014542162,0.000578488,-0.007358666,0.006196589,0.281717283,-0.083910345,0.010564353
-0.080508001,-0.27800563,-0.957199752,0.004626207,0.00351584,0.014542162,0.000578488,-0.007358666,0.006196589,0.281717283,-0.083910345,0.010564353
-0.080508001,-0.27800563,-0.957199752,0.004626207,0.00351584,0.014542162,0.000578488,-0.007358666,0.006196589,0.281717283,-0.083910345,0.010564353
-0.080508001,-0.27800563,-0.957199752,0.004626207,0.00351584,0.014542162,0.000578488,-0.007358666,0.006196589,0.281717283,-0.083910345,0.010564353
-0.080508001,-0.27800563,-0.957199752,0.004626207,0.00351584,0.014542162,0.000578488,-0.007358666,0.006196589,0.281717283,-0.083910345,0.010564353
-0.080589443,-0.277937502,-0.957212687,0.00157962,0.003600329,0.013441205,-0.00732845,-0.007823521,-0.000186528,0.28164634,-0.083993706,0.010594729
-0.080589443,-0.277937502,-0.957212687,0.00157962,0.003600329,0.013441205,-0.00732845,-0.007823521,-0.000186528,0.28164634,-0.083993706,0.010594729
-0.080589443,-0.277937502,-0.957212687,0.00157962,0.003600329,0.013441205,-0.00732845,-0.007823521,-0.000186528,0.28164634,-0.083993706,0.010594729
-0.080589443,-0.277937502,-0.957212687,0.00157962,0.003600329,0.013441205,-0.00732845,-0.007823521,-0.000186528,0.28164634,-0.083993706,0.010594729
-0.080670081,-0.277865648,-0.957226753,0.001156688,0.003513157,0.016018748,-0.004009193,-0.005298505,0.000607999,0.281571539,-0.084076117,0.010620101
-0.080670081,-0.277865648,-0.957226753,0.001156688,0.003513157,0.016018748,-0.004009193,-0.005298505,0.000607999,0.281571539,-0.084076117,0.010620101
-0.080670081,-0.277865648,-0.957226753,0.001156688,0.003513157,0.016018748,-0.004009193,-0.005298505,0.000607999,0.281571539,-0.084076117,0.010620101
-0.080670081,-0.277865648,-0.957226753,0.001156688,0.003513157,0.016018748,-0.004009193,-0.005298505,0.000607999,0.281571539,-0.084076117,0.010620101
-0.080659032,-0.277860463,-0.957229197,0.002625749,0.003858924,0.013976514,-0.000505019,0.000377043,-0.001815797,0.281566138,-0.084064449,0.01062039
-0.080659032,-0.277860463,-0.957229197,0.002625749,0.003858924,0.013976514,-0.000505019,0.000377043,-0.001815797,0.281566138,-0.084064449,0.01062039
-0.080659032,-0.277860463,-0.957229197,0.002625749,0.003858924,0.013976514,-0.000505019,0.000377043,-0.001815797,0.281566138,-0.084064449,0.01062039
-0.080659032,-0.277860463,-0.957229197,0.002625749,0.003858924,0.013976514,-0.000505019,0.000377043,-0.001815797,0.281566138,-0.084064449,0.01062039
-0.080659032,-0.277860463,-0.957229197,0.002625749,0.003858924,0.013976514,-0.000505019,0.000377043,-0.001815797,0.281566138,-0.084064449,0.01062039
-0.08055608,-0.277886599,-0.95723027,-0.001856484,0.004617512,0.013840258,0.004789306,0.00082081,-0.010112235,0.28159336,-0.083957556,0.010468598
-0.08055608,-0.277886599,-0.95723027,-0.001856484,0.004617512,0.013840258,0.004789306,0.00082081,-0.010112235,0.28159336,-0.083957556,0.010468598
-0.08055608,-0.277886599,-0.95723027,-0.001856484,0.004617512,0.013840258,0.004789306,0.00082081,-0.010112235,0.28159336,-0.083957556,0.010468598
-0.08055608,-0.277886599,-0.95723027,-0.001856484,0.004617512,0.013840258,0.004789306,0.00082081,-0.010112235,0.28159336,-0.083957556,0.010468598
-0.08055608,-0.277886599,-0.95723027,-0.001856484,0.004617512,0.013840258,0.004789306,0.00082081,-0.010112235,0.28159336,-0.083957556,0.010468598
-0.08055608,-0.277886599,-0.95723027,-0.001856484,0.004617512,0.013840258,0.004789306,0.00082081,-0.010112235,0.28159336,-0.083957556,0.010468598
-0.080597855,-0.277968854,-0.957202852,0.003953122,0.003860533,0.014026523,0.007336846,-0.006046647,-0.003643844,0.281678982,-0.084003285,0.01043201
-0.080597855,-0.277968854,-0.957202852,0.003953122,0.003860533,0.014026523,0.007336846,-0.006046647,-0.003643844,0.281678982,-0.084003285,0.01043201
-0.080597855,-0.277968854,-0.957202852,0.003953122,0.003860533,0.014026523,0.007336846,-0.006046647,-0.003643844,0.281678982,-0.084003285,0.01043201
-0.080532208,-0.277995199,-0.957200706,0.005245507,0.001079261,0.013566613,0.002572451,-0.001228189,0.001894998,0.281706416,-0.08393537,0.010143817
-0.080532208,-0.277995199,-0.957200706,0.005245507,0.001079261,0.013566613,0.002572451,-0.001228189,0.001894998,0.281706416,-0.08393537,0.010143817
-0.080532208,-0.277995199,-0.957200706,0.005245507,0.001079261,0.013566613,0.002572451,-0.001228189,0.001894998,0.281706416,-0.08393537,0.010143817
-0.080532208,-0.277995199,-0.957200706,0.005245507,0.001079261,0.013566613,0.002572451,-0.001228189,0.001894998,0.281706416,-0.08393537,0.010143817
-0.080532208,-0.277995199,-0.957200706,0.005245507,0.001079261,0.013566613,0.002572451,-0.001228189,0.001894998,0.281706416,-0.08393537,0.010143817
-0.080532208,-0.277995199,-0.957200706,0.005245507,0.001079261,0.013566613,0.002572451,-0.001228189,0.001894998,0.281706416,-0.08393537,0.010143817
-0.080486365,-0.27791819,-0.957226932,1.17E-05,0.003397882,0.01395905,-0.009662418,0.003478136,-0.003430685,0.281626245,-0.083885531,0.010119631
-0.080486365,-0.27791819,-0.957226932,1.17E-05,0.003397882,0.01395905,-0.009662418,0.003478136,-0.003430685,0.281626245,-0.083885531,0.010119631
-0.080486365,-0.27791819,-0.957226932,1.17E-05,0.003397882,0.01395905,-0.009662418,0.003478136,-0.003430685,0.281626245,-0.083885531,0.010119631
-0.080486365,-0.27791819,-0.957226932,1.17E-05,0.003397882,0.01395905,-0.009662418,0.003478136,-0.003430685,0.281626245,-0.083885531,0.010119631
-0.080486365,-0.27791819,-0.957226932,1.17E-05,0.003397882,0.01395905,-0.009662418,0.003478136,-0.003430685,0.281626245,-0.083885531,0.010119631
-0.080486365,-0.27791819,-0.957226932,1.17E-05,0.003397882,0.01395905,-0.009662418,0.003478136,-0.003430685,0.281626245,-0.083885531,0.010119631
-0.080336347,-0.277826697,-0.957266092,0.002547204,0.002726555,0.017324626,-0.004963257,0.005308226,-0.01095912,0.281531011,-0.083726498,0.009960613
-0.080336347,-0.277826697,-0.957266092,0.002547204,0.002726555,0.017324626,-0.004963257,0.005308226,-0.01095912,0.281531011,-0.083726498,0.009960613
-0.080336347,-0.277826697,-0.957266092,0.002547204,0.002726555,0.017324626,-0.004963257,0.005308226,-0.01095912,0.281531011,-0.083726498,0.009960613
-0.080336347,-0.277826697,-0.957266092,0.002547204,0.002726555,0.017324626,-0.004963257,0.005308226,-0.01095912,0.281531011,-0.083726498,0.009960613
-0.080336347,-0.277826697,-0.957266092,0.002547204,0.002726555,0.017324626,-0.004963257,0.005308226,-0.01095912,0.281531011,-0.083726498,0.009960613
-0.080179214,-0.277790606,-0.957289755,0.000620045,0.00476566,0.014464378,-0.000613529,0.005802326,-0.007900001,0.281493416,-0.08356144,0.009789891
-0.080179214,-0.277790606,-0.957289755,0.000620045,0.00476566,0.014464378,-0.000613529,0.005802326,-0.007900001,0.281493416,-0.08356144,0.009789891
-0.080179214,-0.277790606,-0.957289755,0.000620045,0.00476566,0.014464378,-0.000613529,0.005802326,-0.007900001,0.281493416,-0.08356144,0.009789891
-0.080179214,-0.277790606,-0.957289755,0.000620045,0.00476566,0.014464378,-0.000613529,0.005802326,-0.007900001,0.281493416,-0.08356144,0.009789891
-0.080179214,-0.277790606,-0.957289755,0.000620045,0.00476566,0.014464378,-0.000613529,0.005802326,-0.007900001,0.281493416,-0.08356144,0.009789891
-0.080179214,-0.277790606,-0.957289755,0.000620045,0.00476566,0.014464378,-0.000613529,0.005802326,-0.007900001,0.281493416,-0.08356144,0.009789891
-0.080179214,-0.277790606,-0.957289755,0.000620045,0.00476566,0.014464378,-0.000613529,0.005802326,-0.007900001,0.281493416,-0.08356144,0.009789891
-0.080044538,-0.277793765,-0.957300127,0.003903337,0.002754658,0.012979329,-0.006466704,0.006293533,-0.004617176,0.281496729,-0.083420838,0.009613246
-0.080044538,-0.277793765,-0.957300127,0.003903337,0.002754658,0.012979329,-0.006466704,0.006293533,-0.004617176,0.281496729,-0.083420838,0.009613246
-0.080044538,-0.277793765,-0.957300127,0.003903337,0.002754658,0.012979329,-0.006466704,0.006293533,-0.004617176,0.281496729,-0.083420838,0.009613246
-0.080044538,-0.277793765,-0.957300127,0.003903337,0.002754658,0.012979329,-0.006466704,0.006293533,-0.004617176,0.281496729,-0.083420838,0.009613246
-0.080044538,-0.277793765,-0.957300127,0.003903337,0.002754658,0.012979329,-0.006466704,0.006293533,-0.004617176,0.281496729,-0.083420838,0.009613246
-0.079967685,-0.277623057,-0.957356036,0.002895698,0.0015921,0.014317036,-0.010454202,0.000590471,-0.003645708,0.281319017,-0.083336261,0.00948097
-0.079967685,-0.277623057,-0.957356036,0.002895698,0.0015921,0.014317036,-0.010454202,0.000590471,-0.003645708,0.281319017,-0.083336261,0.00948097
-0.079967685,-0.277623057,-0.957356036,0.002895698,0.0015921,0.014317036,-0.010454202,0.000590471,-0.003645708,0.281319017,-0.083336261,0.00948097
-0.079967685,-0.277623057,-0.957356036,0.002895698,0.0015921,0.014317036,-0.010454202,0.000590471,-0.003645708,0.281319017,-0.083336261,0.00948097
-0.079967685,-0.277623057,-0.957356036,0.002895698,0.0015921,0.014317036,-0.010454202,0.000590471,-0.003645708,0.281319017,-0.083336261,0.00948097
-0.079967685,-0.277623057,-0.957356036,0.002895698,0.0015921,0.014317036,-0.010454202,0.000590471,-0.003645708,0.281319017,-0.083336261,0.00948097
-0.079917647,-0.277528286,-0.957387686,0.001838572,0.005495131,0.012120903,-0.006030013,-0.002823011,0.001587723,0.281220363,-0.083281618,0.009432912
-0.079917647,-0.277528286,-0.957387686,0.001838572,0.005495131,0.012120903,-0.006030013,-0.002823011,0.001587723,0.281220363,-0.083281618,0.009432912
-0.079917647,-0.277528286,-0.957387686,0.001838572,0.005495131,0.012120903,-0.006030013,-0.002823011,0.001587723,0.281220363,-0.083281618,0.009432912
-0.079917647,-0.277528286,-0.957387686,0.001838572,0.005495131,0.012120903,-0.006030013,-0.002823011,0.001587723,0.281220363,-0.083281618,0.009432912
-0.079917647,-0.277528286,-0.957387686,0.001838572,0.005495131,0.012120903,-0.006030013,-0.002823011,0.001587723,0.281220363,-0.083281618,0.009432912
-0.079917647,-0.277528286,-0.957387686,0.001838572,0.005495131,0.012120903,-0.006030013,-0.002823011,0.001587723,0.281220363,-0.083281618,0.009432912
-0.079917647,-0.277528286,-0.957387686,0.001838572,0.005495131,0.012120903,-0.006030013,-0.002823011,0.001587723,0.281220363,-0.083281618,0.009432912
-0.080081768,-0.277298391,-0.957440615,0.006092057,0.002533942,0.012906253,-0.020275049,-0.011978524,-0.00720252,0.280981094,-0.083447268,0.009357195
-0.080081768,-0.277298391,-0.957440615,0.006092057,0.002533942,0.012906253,-0.020275049,-0.011978524,-0.00720252,0.280981094,-0.083447268,0.009357195
-0.080081768,-0.277298391,-0.957440615,0.006092057,0.002533942,0.012906253,-0.020275049,-0.011978524,-0.00720252,0.280981094,-0.083447268,0.009357195
-0.080081768,-0.277298391,-0.957440615,0.006092057,0.002533942,0.012906253,-0.020275049,-0.011978524,-0.00720252,0.280981094,-0.083447268,0.009357195
-0.080081768,-0.277298391,-0.957440615,0.006092057,0.002533942,0.012906253,-0.020275049,-0.011978524,-0.00720252,0.280981094,-0.083447268,0.009357195
-0.080116816,-0.276896596,-0.957553923,0.001351111,0.003734291,0.017414093,-0.026346056,-0.005177936,-0.022987342,0.280562914,-0.083473778,0.008957059
-0.080116816,-0.276896596,-0.957553923,0.001351111,0.003734291,0.017414093,-0.026346056,-0.005177936,-0.022987342,0.280562914,-0.083473778,0.008957059
-0.080116816,-0.276896596,-0.957553923,0.001351111,0.003734291,0.017414093,-0.026346056,-0.005177936,-0.022987342,0.280562914,-0.083473778,0.008957059
-0.080116816,-0.276896596,-0.957553923,0.001351111,0.003734291,0.017414093,-0.026346056,-0.005177936,-0.022987342,0.280562914,-0.083473778,0.008957059
-0.080116816,-0.276896596,-0.957553923,0.001351111,0.003734291,0.017414093,-0.026346056,-0.005177936,-0.022987342,0.280562914,-0.083473778,0.008957059
-0.080043532,-0.276480258,-0.957680404,0.001064204,0.004218221,0.015892565,-0.028919801,-0.006815162,-0.02644306,0.280129653,-0.083386821,0.008354579
-0.080043532,-0.276480258,-0.957680404,0.001064204,0.004218221,0.015892565,-0.028919801,-0.006815162,-0.02644306,0.280129653,-0.083386821,0.008354579
-0.080043532,-0.276480258,-0.957680404,0.001064204,0.004218221,0.015892565,-0.028919801,-0.006815162,-0.02644306,0.280129653,-0.083386821,0.008354579
-0.080043532,-0.276480258,-0.957680404,0.001064204,0.004218221,0.015892565,-0.028919801,-0.006815162,-0.02644306,0.280129653,-0.083386821,0.008354579
-0.080043532,-0.276480258,-0.957680404,0.001064204,0.004218221,0.015892565,-0.028919801,-0.006815162,-0.02644306,0.280129653,-0.083386821,0.008354579
-0.080043532,-0.276480258,-0.957680404,0.001064204,0.004218221,0.015892565,-0.028919801,-0.006815162,-0.02644306,0.280129653,-0.083386821,0.008354579
-0.079847328,-0.27610153,-0.957805991,-0.001054615,0.001062423,0.0136531,-0.021389088,0.006645797,-0.024108425,0.279735592,-0.083172501,0.007763122
-0.079847328,-0.27610153,-0.957805991,-0.001054615,0.001062423,0.0136531,-0.021389088,0.006645797,-0.024108425,0.279735592,-0.083172501,0.007763122
-0.079847328,-0.27610153,-0.957805991,-0.001054615,0.001062423,0.0136531,-0.021389088,0.006645797,-0.024108425,0.279735592,-0.083172501,0.007763122
-0.079847328,-0.27610153,-0.957805991,-0.001054615,0.001062423,0.0136531,-0.021389088,0.006645797,-0.024108425,0.279735592,-0.083172501,0.007763122
-0.079847328,-0.27610153,-0.957805991,-0.001054615,0.001062423,0.0136531,-0.021389088,0.006645797,-0.024108425,0.279735592,-0.083172501,0.007763122
-0.079407372,-0.275848836,-0.957915366,-0.00085371,0.004899055,0.014601707,-0.015945761,0.008729467,-0.015481807,0.279472688,-0.082706917,0.007215557
-0.079407372,-0.275848836,-0.957915366,-0.00085371,0.004899055,0.014601707,-0.015945761,0.008729467,-0.015481807,0.279472688,-0.082706917,0.007215557
-0.079407372,-0.275848836,-0.957915366,-0.00085371,0.004899055,0.014601707,-0.015945761,0.008729467,-0.015481807,0.279472688,-0.082706917,0.007215557
-0.079407372,-0.275848836,-0.957915366,-0.00085371,0.004899055,0.014601707,-0.015945761,0.008729467,-0.015481807,0.279472688,-0.082706917,0.007215557
-0.079407372,-0.275848836,-0.957915366,-0.00085371,0.004899055,0.014601707,-0.015945761,0.008729467,-0.015481807,0.279472688,-0.082706917,0.007215557
-0.079407372,-0.275848836,-0.957915366,-0.00085371,0.004899055,0.014601707,-0.015945761,0.008729467,-0.015481807,0.279472688,-0.082706917,0.007215557
-0.079407372,-0.275848836,-0.957915366,-0.00085371,0.004899055,0.014601707,-0.015945761,0.008729467,-0.015481807,0.279472688,-0.082706917,0.007215557
-0.079286352,-0.275702834,-0.95796746,0.004655793,0.005622864,0.014623225,-0.010984678,0.002645947,-0.000725179,0.279320802,-0.082576973,0.007031577
-0.079286352,-0.275702834,-0.95796746,0.004655793,0.005622864,0.014623225,-0.010984678,0.002645947,-0.000725179,0.279320802,-0.082576973,0.007031577
-0.079286352,-0.275702834,-0.95796746,0.004655793,0.005622864,0.014623225,-0.010984678,0.002645947,-0.000725179,0.279320802,-0.082576973,0.007031577
-0.079286352,-0.275702834,-0.95796746,0.004655793,0.005622864,0.014623225,-0.010984678,0.002645947,-0.000725179,0.279320802,-0.082576973,0.007031577
-0.079286352,-0.275702834,-0.95796746,0.004655793,0.005622864,0.014623225,-0.010984678,0.002645947,-0.000725179,0.279320802,-0.082576973,0.007031577
-0.079286352,-0.275702834,-0.95796746,0.004655793,0.005622864,0.014623225,-0.010984678,0.002645947,-0.000725179,0.279320802,-0.082576973,0.007031577
-0.079286352,-0.275702834,-0.95796746,0.004655793,0.005622864,0.014623225,-0.010984678,0.002645947,-0.000725179,0.279320802,-0.082576973,0.007031577
-0.079286352,-0.275702834,-0.95796746,0.004655793,0.005622864,0.014623225,-0.010984678,0.002645947,-0.000725179,0.279320802,-0.082576973,0.007031577
-0.079374172,-0.275583476,-0.957994521,0.000822105,0.004389614,0.015764236,-0.004881457,-0.002369221,0.005371809,0.279196616,-0.0826657,0.00713279
-0.079374172,-0.275583476,-0.957994521,0.000822105,0.004389614,0.015764236,-0.004881457,-0.002369221,0.005371809,0.279196616,-0.0826657,0.00713279
-0.079374172,-0.275583476,-0.957994521,0.000822105,0.004389614,0.015764236,-0.004881457,-0.002369221,0.005371809,0.279196616,-0.0826657,0.00713279
-0.079374172,-0.275583476,-0.957994521,0.000822105,0.004389614,0.015764236,-0.004881457,-0.002369221,0.005371809,0.279196616,-0.0826657,0.00713279
-0.079374172,-0.275583476,-0.957994521,0.000822105,0.004389614,0.015764236,-0.004881457,-0.002369221,0.005371809,0.279196616,-0.0826657,0.00713279
-0.079517253,-0.275511265,-0.958003402,0.001087256,0.005782276,0.014811814,-0.006769533,-0.007409011,0.005830033,0.279121524,-0.082813268,0.007228057
-0.079517253,-0.275511265,-0.958003402,0.001087256,0.005782276,0.014811814,-0.006769533,-0.007409011,0.005830033,0.279121524,-0.082813268,0.007228057
-0.079517253,-0.275511265,-0.958003402,0.001087256,0.005782276,0.014811814,-0.006769533,-0.007409011,0.005830033,0.279121524,-0.082813268,0.007228057
-0.079517253,-0.275511265,-0.958003402,0.001087256,0.005782276,0.014811814,-0.006769533,-0.007409011,0.005830033,0.279121524,-0.082813268,0.007228057
-0.079836592,-0.275493979,-0.957981825,0.002154291,0.00401026,0.013737381,0.00040746,-0.015707506,0.018115086,0.279103518,-0.08314618,0.007438551
-0.079836592,-0.275493979,-0.957981825,0.002154291,0.00401026,0.013737381,0.00040746,-0.015707506,0.018115086,0.279103518,-0.08314618,0.007438551
-0.079836592,-0.275493979,-0.957981825,0.002154291,0.00401026,0.013737381,0.00040746,-0.015707506,0.018115086,0.279103518,-0.08314618,0.007438551
-0.079836592,-0.275493979,-0.957981825,0.002154291,0.00401026,0.013737381,0.00040746,-0.015707506,0.018115086,0.279103518,-0.08314618,0.007438551
-0.079836592,-0.275493979,-0.957981825,0.002154291,0.00401026,0.013737381,0.00040746,-0.015707506,0.018115086,0.279103518,-0.08314618,0.007438551
-0.079836592,-0.275493979,-0.957981825,0.002154291,0.00401026,0.013737381,0.00040746,-0.015707506,0.018115086,0.279103518,-0.08314618,0.007438551
-0.079836592,-0.275493979,-0.957981825,0.002154291,0.00401026,0.013737381,0.00040746,-0.015707506,0.018115086,0.279103518,-0.08314618,0.007438551
-0.080053471,-0.275441527,-0.957978845,0.002111778,0.005102247,0.01437521,0.002837195,-0.005843666,-0.000548079,0.279048956,-0.083371268,0.007528707
-0.080053471,-0.275441527,-0.957978845,0.002111778,0.005102247,0.01437521,0.002837195,-0.005843666,-0.000548079,0.279048956,-0.083371268,0.007528707
-0.080053471,-0.275441527,-0.957978845,0.002111778,0.005102247,0.01437521,0.002837195,-0.005843666,-0.000548079,0.279048956,-0.083371268,0.007528707
-0.08019717,-0.275666416,-0.957902133,0.002438597,0.012437761,0.015626013,0.017335776,-0.014349571,0.003114566,0.279282898,-0.083526888,0.007559552
-0.08019717,-0.275666416,-0.957902133,0.002438597,0.012437761,0.015626013,0.017335776,-0.014349571,0.003114566,0.279282898,-0.083526888,0.007559552
-0.08019717,-0.275666416,-0.957902133,0.002438597,0.012437761,0.015626013,0.017335776,-0.014349571,0.003114566,0.279282898,-0.083526888,0.007559552
-0.08019717,-0.275666416,-0.957902133,0.002438597,0.012437761,0.015626013,0.017335776,-0.014349571,0.003114566,0.279282898,-0.083526888,0.007559552
-0.080477662,-0.276081651,-0.957758963,0.002551243,0.007436156,0.013453484,0.023163652,-0.013080383,0.007242254,0.279714911,-0.083830128,0.007753211
-0.080477662,-0.276081651,-0.957758963,0.002551243,0.007436156,0.013453484,0.023163652,-0.013080383,0.007242254,0.279714911,-0.083830128,0.007753211
-0.080477662,-0.276081651,-0.957758963,0.002551243,0.007436156,0.013453484,0.023163652,-0.013080383,0.007242254,0.279714911,-0.083830128,0.007753211
-0.080477662,-0.276081651,-0.957758963,0.002551243,0.007436156,0.013453484,0.023163652,-0.013080383,0.007242254,0.279714911,-0.083830128,0.007753211
-0.080477662,-0.276081651,-0.957758963,0.002551243,0.007436156,0.013453484,0.023163652,-0.013080383,0.007242254,0.279714911,-0.083830128,0.007753211
-0.080477662,-0.276081651,-0.957758963,0.002551243,0.007436156,0.013453484,0.023163652,-0.013080383,0.007242254,0.279714911,-0.083830128,0.007753211
-0.080477662,-0.276081651,-0.957758963,0.002551243,0.007436156,0.013453484,0.023163652,-0.013080383,0.007242254,0.279714911,-0.083830128,0.007753211
-0.080701858,-0.276386321,-0.957652271,-0.000520483,-0.000865191,0.013102591,0.010072605,-0.008381683,0.003470898,0.280031911,-0.084071884,0.007887022
-0.080701858,-0.276386321,-0.957652271,-0.000520483,-0.000865191,0.013102591,0.010072605,-0.008381683,0.003470898,0.280031911,-0.084071884,0.007887022
-0.080701858,-0.276386321,-0.957652271,-0.000520483,-0.000865191,0.013102591,0.010072605,-0.008381683,0.003470898,0.280031911,-0.084071884,0.007887022
-0.080701858,-0.276386321,-0.957652271,-0.000520483,-0.000865191,0.013102591,0.010072605,-0.008381683,0.003470898,0.280031911,-0.084071884,0.007887022
-0.080701858,-0.276386321,-0.957652271,-0.000520483,-0.000865191,0.013102591,0.010072605,-0.008381683,0.003470898,0.280031911,-0.084071884,0.007887022
-0.080701858,-0.276386321,-0.957652271,-0.000520483,-0.000865191,0.013102591,0.010072605,-0.008381683,0.003470898,0.280031911,-0.084071884,0.007887022
-0.080701858,-0.276386321,-0.957652271,-0.000520483,-0.000865191,0.013102591,0.010072605,-0.008381683,0.003470898,0.280031911,-0.084071884,0.007887022
-0.080900282,-0.276511848,-0.957599282,0.002744965,0.002449423,0.012423992,0.008333626,-0.021900142,0.002021872,0.280162522,-0.084282265,0.007935475
-0.080900282,-0.276511848,-0.957599282,0.002744965,0.002449423,0.012423992,0.008333626,-0.021900142,0.002021872,0.280162522,-0.084282265,0.007935475
-0.080900282,-0.276511848,-0.957599282,0.002744965,0.002449423,0.012423992,0.008333626,-0.021900142,0.002021872,0.280162522,-0.084282265,0.007935475
-0.080900282,-0.276511848,-0.957599282,0.002744965,0.002449423,0.012423992,0.008333626,-0.021900142,0.002021872,0.280162522,-0.084282265,0.007935475
-0.080900282,-0.276511848,-0.957599282,0.002744965,0.002449423,0.012423992,0.008333626,-0.021900142,0.002021872,0.280162522,-0.084282265,0.007935475
-0.080900282,-0.276511848,-0.957599282,0.002744965,0.002449423,0.012423992,0.008333626,-0.021900142,0.002021872,0.280162522,-0.084282265,0.007935475
-0.080900282,-0.276511848,-0.957599282,0.002744965,0.002449423,0.012423992,0.008333626,-0.021900142,0.002021872,0.280162522,-0.084282265,0.007935475
-0.081468701,-0.276594609,-0.957527161,0.005800582,0.005263567,0.012763858,0.014538779,-0.02849724,0.020017862,0.28024866,-0.084877973,0.008202129
-0.081468701,-0.276594609,-0.957527161,0.005800582,0.005263567,0.012763858,0.014538779,-0.02849724,0.020017862,0.28024866,-0.084877973,0.008202129
-0.081468701,-0.276594609,-0.957527161,0.005800582,0.005263567,0.012763858,0.014538779,-0.02849724,0.020017862,0.28024866,-0.084877973,0.008202129
-0.081468701,-0.276594609,-0.957527161,0.005800582,0.005263567,0.012763858,0.014538779,-0.02849724,0.020017862,0.28024866,-0.084877973,0.008202129
-0.081468701,-0.276594609,-0.957527161,0.005800582,0.005263567,0.012763858,0.014538779,-0.02849724,0.020017862,0.28024866,-0.084877973,0.008202129
-0.081468701,-0.276594609,-0.957527161,0.005800582,0.005263567,0.012763858,0.014538779,-0.02849724,0.020017862,0.28024866,-0.084877973,0.008202129
-0.081468701,-0.276594609,-0.957527161,0.005800582,0.005263567,0.012763858,0.014538779,-0.02849724,0.020017862,0.28024866,-0.084877973,0.008202129
-0.081468701,-0.276594609,-0.957527161,0.005800582,0.005263567,0.012763858,0.014538779,-0.02849724,0.020017862,0.28024866,-0.084877973,0.008202129
-0.082286797,-0.276806563,-0.957395971,0.007442653,0.001798123,0.014097512,0.0084101,-0.038552925,0.013547661,0.280469222,-0.085737845,0.008900278
-0.082286797,-0.276806563,-0.957395971,0.007442653,0.001798123,0.014097512,0.0084101,-0.038552925,0.013547661,0.280469222,-0.085737845,0.008900278
-0.082286797,-0.276806563,-0.957395971,0.007442653,0.001798123,0.014097512,0.0084101,-0.038552925,0.013547661,0.280469222,-0.085737845,0.008900278
-0.082286797,-0.276806563,-0.957395971,0.007442653,0.001798123,0.014097512,0.0084101,-0.038552925,0.013547661,0.280469222,-0.085737845,0.008900278
-0.082286797,-0.276806563,-0.957395971,0.007442653,0.001798123,0.014097512,0.0084101,-0.038552925,0.013547661,0.280469222,-0.085737845,0.008900278
-0.082286797,-0.276806563,-0.957395971,0.007442653,0.001798123,0.014097512,0.0084101,-0.038552925,0.013547661,0.280469222,-0.085737845,0.008900278
-0.082454436,-0.272564679,-0.958597839,-0.036899589,0.034925014,0.100565493,-0.158850089,0.074783161,-0.092234269,0.27605762,-0.085804471,0.007699429
-0.082454436,-0.272564679,-0.958597839,-0.036899589,0.034925014,0.100565493,-0.158850089,0.074783161,-0.092234269,0.27605762,-0.085804471,0.007699429
-0.082454436,-0.272564679,-0.958597839,-0.036899589,0.034925014,0.100565493,-0.158850089,0.074783161,-0.092234269,0.27605762,-0.085804471,0.007699429
-0.081190214,-0.27095741,-0.959161222,-0.008424431,-0.354820073,-0.029364288,-0.057813726,0.061421864,0.019388238,0.274387507,-0.084445796,0.007739115
-0.081190214,-0.27095741,-0.959161222,-0.008424431,-0.354820073,-0.029364288,-0.057813726,0.061421864,0.019388238,0.274387507,-0.084445796,0.007739115
-0.082087144,-0.272003651,-0.958788693,0.036265247,0.084870666,-0.030896485,0.186050221,-0.12680541,0.096279614,0.275474588,-0.085407204,0.009580178
-0.082087144,-0.272003651,-0.958788693,0.036265247,0.084870666,-0.030896485,0.186050221,-0.12680541,0.096279614,0.275474588,-0.085407204,0.009580178
-0.082087144,-0.272003651,-0.958788693,0.036265247,0.084870666,-0.030896485,0.186050221,-0.12680541,0.096279614,0.275474588,-0.085407204,0.009580178
-0.084422283,-0.274940133,-0.957747757,0.013759069,0.16263625,0.053572834,0.154766843,0.007170186,0.130678222,0.278527446,-0.087919436,0.013423358
-0.084422283,-0.274940133,-0.957747757,0.013759069,0.16263625,0.053572834,0.154766843,0.007170186,0.130678222,0.278527446,-0.087919436,0.013423358
-0.084422283,-0.274940133,-0.957747757,0.013759069,0.16263625,0.053572834,0.154766843,0.007170186,0.130678222,0.278527446,-0.087919436,0.013423358
-0.084422283,-0.274940133,-0.957747757,0.013759069,0.16263625,0.053572834,0.154766843,0.007170186,0.130678222,0.278527446,-0.087919436,0.013423358
-0.084422283,-0.274940133,-0.957747757,0.013759069,0.16263625,0.053572834,0.154766843,0.007170186,0.130678222,0.278527446,-0.087919436,0.013423358