gravityX,gravityY,gravityZ,accelX,accelY,accelZ,rotRateX,rotRatY,rotRateZ,attPitch,attRoll,attYaw
-0.92518568,-0.340952665,-0.166681543,-0.003021717,0.01452139,-3.60E-05,0.103419289,-0.00237186,0.117668957,0.347930092,-1.39254832,0.291731606
-0.92518568,-0.340952665,-0.166681543,-0.003021717,0.01452139,-3.60E-05,0.103419289,-0.00237186,0.117668957,0.347930092,-1.39254832,0.291731606
-0.92518568,-0.340952665,-0.166681543,-0.003021717,0.01452139,-3.60E-05,0.103419289,-0.00237186,0.117668957,0.347930092,-1.39254832,0.291731606
-0.92518568,-0.340952665,-0.166681543,-0.003021717,0.01452139,-3.60E-05,0.103419289,-0.00237186,0.117668957,0.347930092,-1.39254832,0.291731606
-0.926982999,-0.336468101,-0.1658061,-0.003025353,0.024212092,-0.0008654,-0.076350681,0.001814121,0.131337315,0.34316381,-1.39380164,0.293380907
-0.926982999,-0.336468101,-0.1658061,-0.003025353,0.024212092,-0.0008654,-0.076350681,0.001814121,0.131337315,0.34316381,-1.39380164,0.293380907
-0.926982999,-0.336468101,-0.1658061,-0.003025353,0.024212092,-0.0008654,-0.076350681,0.001814121,0.131337315,0.34316381,-1.39380164,0.293380907
-0.926982999,-0.336468101,-0.1658061,-0.003025353,0.024212092,-0.0008654,-0.076350681,0.001814121,0.131337315,0.34316381,-1.39380164,0.293380907
-0.926982999,-0.336468101,-0.1658061,-0.003025353,0.024212092,-0.0008654,-0.076350681,0.001814121,0.131337315,0.34316381,-1.39380164,0.293380907
-0.926982999,-0.336468101,-0.1658061,-0.003025353,0.024212092,-0.0008654,-0.076350681,0.001814121,0.131337315,0.34316381,-1.39380164,0.293380907
-0.926982999,-0.336468101,-0.1658061,-0.003025353,0.024212092,-0.0008654,-0.076350681,0.001814121,0.131337315,0.34316381,-1.39380164,0.293380907
-0.926982999,-0.336468101,-0.1658061,-0.003025353,0.024212092,-0.0008654,-0.076350681,0.001814121,0.131337315,0.34316381,-1.39380164,0.293380907
-0.926982999,-0.336468101,-0.1658061,-0.003025353,0.024212092,-0.0008654,-0.076350681,0.001814121,0.131337315,0.34316381,-1.39380164,0.293380907
-0.926982999,-0.336468101,-0.1658061,-0.003025353,0.024212092,-0.0008654,-0.076350681,0.001814121,0.131337315,0.34316381,-1.39380164,0.293380907
-0.926982999,-0.336468101,-0.1658061,-0.003025353,0.024212092,-0.0008654,-0.076350681,0.001814121,0.131337315,0.34316381,-1.39380164,0.293380907
-0.926982999,-0.336468101,-0.1658061,-0.003025353,0.024212092,-0.0008654,-0.076350681,0.001814121,0.131337315,0.34316381,-1.39380164,0.293380907
-0.926982999,-0.336468101,-0.1658061,-0.003025353,0.024212092,-0.0008654,-0.076350681,0.001814121,0.131337315,0.34316381,-1.39380164,0.293380907
-0.926982999,-0.336468101,-0.1658061,-0.003025353,0.024212092,-0.0008654,-0.076350681,0.001814121,0.131337315,0.34316381,-1.39380164,0.293380907
-0.926982999,-0.336468101,-0.1658061,-0.003025353,0.024212092,-0.0008654,-0.076350681,0.001814121,0.131337315,0.34316381,-1.39380164,0.293380907
-0.926982999,-0.336468101,-0.1658061,-0.003025353,0.024212092,-0.0008654,-0.076350681,0.001814121,0.131337315,0.34316381,-1.39380164,0.293380907
-0.926982999,-0.336468101,-0.1658061,-0.003025353,0.024212092,-0.0008654,-0.076350681,0.001814121,0.131337315,0.34316381,-1.39380164,0.293380907
-0.926982999,-0.336468101,-0.1658061,-0.003025353,0.024212092,-0.0008654,-0.076350681,0.001814121,0.131337315,0.34316381,-1.39380164,0.293380907
-0.926982999,-0.336468101,-0.1658061,-0.003025353,0.024212092,-0.0008654,-0.076350681,0.001814121,0.131337315,0.34316381,-1.39380164,0.293380907
-0.926982999,-0.336468101,-0.1658061,-0.003025353,0.024212092,-0.0008654,-0.076350681,0.001814121,0.131337315,0.34316381,-1.39380164,0.293380907
-0.929375529,-0.328864336,-0.167659,-0.00807941,-0.000496835,-0.004551113,-0.120705672,-0.006626417,0.20408459,0.335100781,-1.392316326,0.288766831
-0.929375529,-0.328864336,-0.167659,-0.00807941,-0.000496835,-0.004551113,-0.120705672,-0.006626417,0.20408459,0.335100781,-1.392316326,0.288766831
-0.929375529,-0.328864336,-0.167659,-0.00807941,-0.000496835,-0.004551113,-0.120705672,-0.006626417,0.20408459,0.335100781,-1.392316326,0.288766831
-0.929375529,-0.328864336,-0.167659,-0.00807941,-0.000496835,-0.004551113,-0.120705672,-0.006626417,0.20408459,0.335100781,-1.392316326,0.288766831
-0.929375529,-0.328864336,-0.167659,-0.00807941,-0.000496835,-0.004551113,-0.120705672,-0.006626417,0.20408459,0.335100781,-1.392316326,0.288766831
-0.929375529,-0.328864336,-0.167659,-0.00807941,-0.000496835,-0.004551113,-0.120705672,-0.006626417,0.20408459,0.335100781,-1.392316326,0.288766831
-0.929375529,-0.328864336,-0.167659,-0.00807941,-0.000496835,-0.004551113,-0.120705672,-0.006626417,0.20408459,0.335100781,-1.392316326,0.288766831
-0.929375529,-0.328864336,-0.167659,-0.00807941,-0.000496835,-0.004551113,-0.120705672,-0.006626417,0.20408459,0.335100781,-1.392316326,0.288766831
-0.929375529,-0.328864336,-0.167659,-0.00807941,-0.000496835,-0.004551113,-0.120705672,-0.006626417,0.20408459,0.335100781,-1.392316326,0.288766831
-0.929375529,-0.328864336,-0.167659,-0.00807941,-0.000496835,-0.004551113,-0.120705672,-0.006626417,0.20408459,0.335100781,-1.392316326,0.288766831
-0.929375529,-0.328864336,-0.167659,-0.00807941,-0.000496835,-0.004551113,-0.120705672,-0.006626417,0.20408459,0.335100781,-1.392316326,0.288766831
-0.929375529,-0.328864336,-0.167659,-0.00807941,-0.000496835,-0.004551113,-0.120705672,-0.006626417,0.20408459,0.335100781,-1.392316326,0.288766831
-0.929375529,-0.328864336,-0.167659,-0.00807941,-0.000496835,-0.004551113,-0.120705672,-0.006626417,0.20408459,0.335100781,-1.392316326,0.288766831
-0.929375529,-0.328864336,-0.167659,-0.00807941,-0.000496835,-0.004551113,-0.120705672,-0.006626417,0.20408459,0.335100781,-1.392316326,0.288766831
-0.929375529,-0.328864336,-0.167659,-0.00807941,-0.000496835,-0.004551113,-0.120705672,-0.006626417,0.20408459,0.335100781,-1.392316326,0.288766831
-0.929375529,-0.328864336,-0.167659,-0.00807941,-0.000496835,-0.004551113,-0.120705672,-0.006626417,0.20408459,0.335100781,-1.392316326,0.288766831
-0.929375529,-0.328864336,-0.167659,-0.00807941,-0.000496835,-0.004551113,-0.120705672,-0.006626417,0.20408459,0.335100781,-1.392316326,0.288766831
-0.929375529,-0.328864336,-0.167659,-0.00807941,-0.000496835,-0.004551113,-0.120705672,-0.006626417,0.20408459,0.335100781,-1.392316326,0.288766831
-0.929375529,-0.328864336,-0.167659,-0.00807941,-0.000496835,-0.004551113,-0.120705672,-0.006626417,0.20408459,0.335100781,-1.392316326,0.288766831
-0.929375529,-0.328864336,-0.167659,-0.00807941,-0.000496835,-0.004551113,-0.120705672,-0.006626417,0.20408459,0.335100781,-1.392316326,0.288766831
-0.929375529,-0.328864336,-0.167659,-0.00807941,-0.000496835,-0.004551113,-0.120705672,-0.006626417,0.20408459,0.335100781,-1.392316326,0.288766831
-0.929375529,-0.328864336,-0.167659,-0.00807941,-0.000496835,-0.004551113,-0.120705672,-0.006626417,0.20408459,0.335100781,-1.392316326,0.288766831
-0.929375529,-0.328864336,-0.167659,-0.00807941,-0.000496835,-0.004551113,-0.120705672,-0.006626417,0.20408459,0.335100781,-1.392316326,0.288766831
-0.929375529,-0.328864336,-0.167659,-0.00807941,-0.000496835,-0.004551113,-0.120705672,-0.006626417,0.20408459,0.335100781,-1.392316326,0.288766831
-0.932091594,-0.32156992,-0.166727275,-0.000861824,0.013220131,8.65E-05,0.117341988,-0.018326048,0.209328398,0.327387012,-1.393793935,0.291465119
-0.932091594,-0.32156992,-0.166727275,-0.000861824,0.013220131,8.65E-05,0.117341988,-0.018326048,0.209328398,0.327387012,-1.393793935,0.291465119
-0.932091594,-0.32156992,-0.166727275,-0.000861824,0.013220131,8.65E-05,0.117341988,-0.018326048,0.209328398,0.327387012,-1.393793935,0.291465119
-0.932091594,-0.32156992,-0.166727275,-0.000861824,0.013220131,8.65E-05,0.117341988,-0.018326048,0.209328398,0.327387012,-1.393793935,0.291465119
-0.932091594,-0.32156992,-0.166727275,-0.000861824,0.013220131,8.65E-05,0.117341988,-0.018326048,0.209328398,0.327387012,-1.393793935,0.291465119
-0.932091594,-0.32156992,-0.166727275,-0.000861824,0.013220131,8.65E-05,0.117341988,-0.018326048,0.209328398,0.327387012,-1.393793935,0.291465119
-0.932091594,-0.32156992,-0.166727275,-0.000861824,0.013220131,8.65E-05,0.117341988,-0.018326048,0.209328398,0.327387012,-1.393793935,0.291465119
-0.932091594,-0.32156992,-0.166727275,-0.000861824,0.013220131,8.65E-05,0.117341988,-0.018326048,0.209328398,0.327387012,-1.393793935,0.291465119
-0.932091594,-0.32156992,-0.166727275,-0.000861824,0.013220131,8.65E-05,0.117341988,-0.018326048,0.209328398,0.327387012,-1.393793935,0.291465119
-0.932091594,-0.32156992,-0.166727275,-0.000861824,0.013220131,8.65E-05,0.117341988,-0.018326048,0.209328398,0.327387012,-1.393793935,0.291465119
-0.932091594,-0.32156992,-0.166727275,-0.000861824,0.013220131,8.65E-05,0.117341988,-0.018326048,0.209328398,0.327387012,-1.393793935,0.291465119
-0.932091594,-0.32156992,-0.166727275,-0.000861824,0.013220131,8.65E-05,0.117341988,-0.018326048,0.209328398,0.327387012,-1.393793935,0.291465119
-0.932091594,-0.32156992,-0.166727275,-0.000861824,0.013220131,8.65E-05,0.117341988,-0.018326048,0.209328398,0.327387012,-1.393793935,0.291465119
-0.932091594,-0.32156992,-0.166727275,-0.000861824,0.013220131,8.65E-05,0.117341988,-0.018326048,0.209328398,0.327387012,-1.393793935,0.291465119
-0.932091594,-0.32156992,-0.166727275,-0.000861824,0.013220131,8.65E-05,0.117341988,-0.018326048,0.209328398,0.327387012,-1.393793935,0.291465119
-0.932091594,-0.32156992,-0.166727275,-0.000861824,0.013220131,8.65E-05,0.117341988,-0.018326048,0.209328398,0.327387012,-1.393793935,0.291465119
-0.932091594,-0.32156992,-0.166727275,-0.000861824,0.013220131,8.65E-05,0.117341988,-0.018326048,0.209328398,0.327387012,-1.393793935,0.291465119
-0.932091594,-0.32156992,-0.166727275,-0.000861824,0.013220131,8.65E-05,0.117341988,-0.018326048,0.209328398,0.327387012,-1.393793935,0.291465119
-0.932091594,-0.32156992,-0.166727275,-0.000861824,0.013220131,8.65E-05,0.117341988,-0.018326048,0.209328398,0.327387012,-1.393793935,0.291465119
-0.932091594,-0.32156992,-0.166727275,-0.000861824,0.013220131,8.65E-05,0.117341988,-0.018326048,0.209328398,0.327387012,-1.393793935,0.291465119
-0.932091594,-0.32156992,-0.166727275,-0.000861824,0.013220131,8.65E-05,0.117341988,-0.018326048,0.209328398,0.327387012,-1.393793935,0.291465119
-0.932091594,-0.32156992,-0.166727275,-0.000861824,0.013220131,8.65E-05,0.117341988,-0.018326048,0.209328398,0.327387012,-1.393793935,0.291465119
-0.932091594,-0.32156992,-0.166727275,-0.000861824,0.013220131,8.65E-05,0.117341988,-0.018326048,0.209328398,0.327387012,-1.393793935,0.291465119
-0.93149972,-0.321706802,-0.169744283,-0.026081383,-0.027658612,0.001409769,-0.029444179,0.037863068,0.217664674,0.327531564,-1.390547236,0.293104051
-0.93149972,-0.321706802,-0.169744283,-0.026081383,-0.027658612,0.001409769,-0.029444179,0.037863068,0.217664674,0.327531564,-1.390547236,0.293104051
-0.93149972,-0.321706802,-0.169744283,-0.026081383,-0.027658612,0.001409769,-0.029444179,0.037863068,0.217664674,0.327531564,-1.390547236,0.293104051
-0.941484213,-0.287238896,-0.176355734,0.016478717,0.010779411,-0.001727521,0.413876057,-0.038264748,0.214195967,0.291343023,-1.385625433,0.328551366
-0.941484213,-0.287238896,-0.176355734,0.016478717,0.010779411,-0.001727521,0.413876057,-0.038264748,0.214195967,0.291343023,-1.385625433,0.328551366
-0.941484213,-0.287238896,-0.176355734,0.016478717,0.010779411,-0.001727521,0.413876057,-0.038264748,0.214195967,0.291343023,-1.385625433,0.328551366
-0.941484213,-0.287238896,-0.176355734,0.016478717,0.010779411,-0.001727521,0.413876057,-0.038264748,0.214195967,0.291343023,-1.385625433,0.328551366
-0.941484213,-0.287238896,-0.176355734,0.016478717,0.010779411,-0.001727521,0.413876057,-0.038264748,0.214195967,0.291343023,-1.385625433,0.328551366
-0.941484213,-0.287238896,-0.176355734,0.016478717,0.010779411,-0.001727521,0.413876057,-0.038264748,0.214195967,0.291343023,-1.385625433,0.328551366
-0.941484213,-0.287238896,-0.176355734,0.016478717,0.010779411,-0.001727521,0.413876057,-0.038264748,0.214195967,0.291343023,-1.385625433,0.328551366
-0.941484213,-0.287238896,-0.176355734,0.016478717,0.010779411,-0.001727521,0.413876057,-0.038264748,0.214195967,0.291343023,-1.385625433,0.328551366
-0.941484213,-0.287238896,-0.176355734,0.016478717,0.010779411,-0.001727521,0.413876057,-0.038264748,0.214195967,0.291343023,-1.385625433,0.328551366
-0.944898486,-0.279424489,-0.170554042,-0.00331533,-0.027354121,0.008339763,-0.033761203,-0.043506805,0.145108834,0.283194662,-1.392219266,0.33954438
-0.944898486,-0.279424489,-0.170554042,-0.00331533,-0.027354121,0.008339763,-0.033761203,-0.043506805,0.145108834,0.283194662,-1.392219266,0.33954438
-0.944898486,-0.279424489,-0.170554042,-0.00331533,-0.027354121,0.008339763,-0.033761203,-0.043506805,0.145108834,0.283194662,-1.392219266,0.33954438
-0.944898486,-0.279424489,-0.170554042,-0.00331533,-0.027354121,0.008339763,-0.033761203,-0.043506805,0.145108834,0.283194662,-1.392219266,0.33954438
-0.944898486,-0.279424489,-0.170554042,-0.00331533,-0.027354121,0.008339763,-0.033761203,-0.043506805,0.145108834,0.283194662,-1.392219266,0.33954438
-0.944898486,-0.279424489,-0.170554042,-0.00331533,-0.027354121,0.008339763,-0.033761203,-0.043506805,0.145108834,0.283194662,-1.392219266,0.33954438
-0.944898486,-0.279424489,-0.170554042,-0.00331533,-0.027354121,0.008339763,-0.033761203,-0.043506805,0.145108834,0.283194662,-1.392219266,0.33954438
-0.944898486,-0.279424489,-0.170554042,-0.00331533,-0.027354121,0.008339763,-0.033761203,-0.043506805,0.145108834,0.283194662,-1.392219266,0.33954438
-0.944898486,-0.279424489,-0.170554042,-0.00331533,-0.027354121,0.008339763,-0.033761203,-0.043506805,0.145108834,0.283194662,-1.392219266,0.33954438
-0.944898486,-0.279424489,-0.170554042,-0.00331533,-0.027354121,0.008339763,-0.033761203,-0.043506805,0.145108834,0.283194662,-1.392219266,0.33954438
-0.944898486,-0.279424489,-0.170554042,-0.00331533,-0.027354121,0.008339763,-0.033761203,-0.043506805,0.145108834,0.283194662,-1.392219266,0.33954438
-0.944898486,-0.279424489,-0.170554042,-0.00331533,-0.027354121,0.008339763,-0.033761203,-0.043506805,0.145108834,0.283194662,-1.392219266,0.33954438
-0.944898486,-0.279424489,-0.170554042,-0.00331533,-0.027354121,0.008339763,-0.033761203,-0.043506805,0.145108834,0.283194662,-1.392219266,0.33954438
-0.944898486,-0.279424489,-0.170554042,-0.00331533,-0.027354121,0.008339763,-0.033761203,-0.043506805,0.145108834,0.283194662,-1.392219266,0.33954438
-0.946398377,-0.273339123,-0.172093049,-0.008743167,-0.026115298,0.012015164,-0.376556188,-0.068425037,0.115695231,0.276862636,-1.390921735,0.330347855
-0.946398377,-0.273339123,-0.172093049,-0.008743167,-0.026115298,0.012015164,-0.376556188,-0.068425037,0.115695231,0.276862636,-1.390921735,0.330347855
-0.946398377,-0.273339123,-0.172093049,-0.008743167,-0.026115298,0.012015164,-0.376556188,-0.068425037,0.115695231,0.276862636,-1.390921735,0.330347855
-0.946398377,-0.273339123,-0.172093049,-0.008743167,-0.026115298,0.012015164,-0.376556188,-0.068425037,0.115695231,0.276862636,-1.390921735,0.330347855
-0.946398377,-0.273339123,-0.172093049,-0.008743167,-0.026115298,0.012015164,-0.376556188,-0.068425037,0.115695231,0.276862636,-1.390921735,0.330347855
-0.946398377,-0.273339123,-0.172093049,-0.008743167,-0.026115298,0.012015164,-0.376556188,-0.068425037,0.115695231,0.276862636,-1.390921735,0.330347855
-0.946398377,-0.273339123,-0.172093049,-0.008743167,-0.026115298,0.012015164,-0.376556188,-0.068425037,0.115695231,0.276862636,-1.390921735,0.330347855
-0.946398377,-0.273339123,-0.172093049,-0.008743167,-0.026115298,0.012015164,-0.376556188,-0.068425037,0.115695231,0.276862636,-1.390921735,0.330347855
-0.946398377,-0.273339123,-0.172093049,-0.008743167,-0.026115298,0.012015164,-0.376556188,-0.068425037,0.115695231,0.276862636,-1.390921735,0.330347855
-0.946398377,-0.273339123,-0.172093049,-0.008743167,-0.026115298,0.012015164,-0.376556188,-0.068425037,0.115695231,0.276862636,-1.390921735,0.330347855
-0.948854923,-0.266415924,-0.169401348,-0.01486212,0.005398363,0.006012321,-0.213855237,-0.11560645,0.140468657,0.269672636,-1.394125292,0.306397114
-0.948854923,-0.266415924,-0.169401348,-0.01486212,0.005398363,0.006012321,-0.213855237,-0.11560645,0.140468657,0.269672636,-1.394125292,0.306397114
-0.948854923,-0.266415924,-0.169401348,-0.01486212,0.005398363,0.006012321,-0.213855237,-0.11560645,0.140468657,0.269672636,-1.394125292,0.306397114
-0.948854923,-0.266415924,-0.169401348,-0.01486212,0.005398363,0.006012321,-0.213855237,-0.11560645,0.140468657,0.269672636,-1.394125292,0.306397114
-0.948854923,-0.266415924,-0.169401348,-0.01486212,0.005398363,0.006012321,-0.213855237,-0.11560645,0.140468657,0.269672636,-1.394125292,0.306397114
-0.948854923,-0.266415924,-0.169401348,-0.01486212,0.005398363,0.006012321,-0.213855237,-0.11560645,0.140468657,0.269672636,-1.394125292,0.306397114
-0.951178253,-0.260198444,-0.166002259,0.001453817,0.001897067,0.00157547,-0.172921419,-0.110175036,0.098016419,0.263227707,-1.398013739,0.300227145
-0.951178253,-0.260198444,-0.166002259,0.001453817,0.001897067,0.00157547,-0.172921419,-0.110175036,0.098016419,0.263227707,-1.398013739,0.300227145
-0.951178253,-0.260198444,-0.166002259,0.001453817,0.001897067,0.00157547,-0.172921419,-0.110175036,0.098016419,0.263227707,-1.398013739,0.300227145
-0.951178253,-0.260198444,-0.166002259,0.001453817,0.001897067,0.00157547,-0.172921419,-0.110175036,0.098016419,0.263227707,-1.398013739,0.300227145
-0.951178253,-0.260198444,-0.166002259,0.001453817,0.001897067,0.00157547,-0.172921419,-0.110175036,0.098016419,0.263227707,-1.398013739,0.300227145
-0.951178253,-0.260198444,-0.166002259,0.001453817,0.001897067,0.00157547,-0.172921419,-0.110175036,0.098016419,0.263227707,-1.398013739,0.300227145
-0.951178253,-0.260198444,-0.166002259,0.001453817,0.001897067,0.00157547,-0.172921419,-0.110175036,0.098016419,0.263227707,-1.398013739,0.300227145
-0.951178253,-0.260198444,-0.166002259,0.001453817,0.001897067,0.00157547,-0.172921419,-0.110175036,0.098016419,0.263227707,-1.398013739,0.300227145
-0.951178253,-0.260198444,-0.166002259,0.001453817,0.001897067,0.00157547,-0.172921419,-0.110175036,0.098016419,0.263227707,-1.398013739,0.300227145
-0.952052712,-0.258287549,-0.163961098,-0.00853622,0.007646054,-0.015022457,-0.128901035,-0.068742603,-0.059127927,0.261249193,-1.400250764,0.293444395
-0.952052712,-0.258287549,-0.163961098,-0.00853622,0.007646054,-0.015022457,-0.128901035,-0.068742603,-0.059127927,0.261249193,-1.400250764,0.293444395
-0.952052712,-0.258287549,-0.163961098,-0.00853622,0.007646054,-0.015022457,-0.128901035,-0.068742603,-0.059127927,0.261249193,-1.400250764,0.293444395
-0.952052712,-0.258287549,-0.163961098,-0.00853622,0.007646054,-0.015022457,-0.128901035,-0.068742603,-0.059127927,0.261249193,-1.400250764,0.293444395
-0.952052712,-0.258287549,-0.163961098,-0.00853622,0.007646054,-0.015022457,-0.128901035,-0.068742603,-0.059127927,0.261249193,-1.400250764,0.293444395
-0.952052712,-0.258287549,-0.163961098,-0.00853622,0.007646054,-0.015022457,-0.128901035,-0.068742603,-0.059127927,0.261249193,-1.400250764,0.293444395
-0.950734019,-0.262387455,-0.165098414,-0.026929855,0.039043814,0.018479049,0.066920869,0.096512921,-0.142227873,0.265495515,-1.398857328,0.292501273
-0.950734019,-0.262387455,-0.165098414,-0.026929855,0.039043814,0.018479049,0.066920869,0.096512921,-0.142227873,0.265495515,-1.398857328,0.292501273
-0.950734019,-0.262387455,-0.165098414,-0.026929855,0.039043814,0.018479049,0.066920869,0.096512921,-0.142227873,0.265495515,-1.398857328,0.292501273
-0.950734019,-0.262387455,-0.165098414,-0.026929855,0.039043814,0.018479049,0.066920869,0.096512921,-0.142227873,0.265495515,-1.398857328,0.292501273
-0.950734019,-0.262387455,-0.165098414,-0.026929855,0.039043814,0.018479049,0.066920869,0.096512921,-0.142227873,0.265495515,-1.398857328,0.292501273
-0.950734019,-0.262387455,-0.165098414,-0.026929855,0.039043814,0.018479049,0.066920869,0.096512921,-0.142227873,0.265495515,-1.398857328,0.292501273
-0.948768616,-0.267124921,-0.168767303,-0.015681684,0.020007908,-0.001670539,-0.075363986,0.073553383,-0.132506847,0.270408287,-1.394757262,0.292168454
-0.948768616,-0.267124921,-0.168767303,-0.015681684,0.020007908,-0.001670539,-0.075363986,0.073553383,-0.132506847,0.270408287,-1.394757262,0.292168454
-0.948768616,-0.267124921,-0.168767303,-0.015681684,0.020007908,-0.001670539,-0.075363986,0.073553383,-0.132506847,0.270408287,-1.394757262,0.292168454
-0.948768616,-0.267124921,-0.168767303,-0.015681684,0.020007908,-0.001670539,-0.075363986,0.073553383,-0.132506847,0.270408287,-1.394757262,0.292168454
-0.948768616,-0.267124921,-0.168767303,-0.015681684,0.020007908,-0.001670539,-0.075363986,0.073553383,-0.132506847,0.270408287,-1.394757262,0.292168454
-0.948768616,-0.267124921,-0.168767303,-0.015681684,0.020007908,-0.001670539,-0.075363986,0.073553383,-0.132506847,0.270408287,-1.394757262,0.292168454
-0.948875308,-0.262653142,-0.175068572,-0.003870726,0.063250571,0.022665977,-0.258623779,-0.081786923,-0.023140155,0.265770849,-1.38834697,0.241419481
-0.948875308,-0.262653142,-0.175068572,-0.003870726,0.063250571,0.022665977,-0.258623779,-0.081786923,-0.023140155,0.265770849,-1.38834697,0.241419481
-0.948875308,-0.262653142,-0.175068572,-0.003870726,0.063250571,0.022665977,-0.258623779,-0.081786923,-0.023140155,0.265770849,-1.38834697,0.241419481
-0.948875308,-0.262653142,-0.175068572,-0.003870726,0.063250571,0.022665977,-0.258623779,-0.081786923,-0.023140155,0.265770849,-1.38834697,0.241419481
-0.948875308,-0.262653142,-0.175068572,-0.003870726,0.063250571,0.022665977,-0.258623779,-0.081786923,-0.023140155,0.265770849,-1.38834697,0.241419481
-0.948875308,-0.262653142,-0.175068572,-0.003870726,0.063250571,0.022665977,-0.258623779,-0.081786923,-0.023140155,0.265770849,-1.38834697,0.241419481
-0.950293481,-0.25965324,-0.171820939,-0.015347302,0.081872135,0.073191285,0.172796279,0.070851974,-0.003092676,0.26266312,-1.391920574,0.240721704
-0.950293481,-0.25965324,-0.171820939,-0.015347302,0.081872135,0.073191285,0.172796279,0.070851974,-0.003092676,0.26266312,-1.391920574,0.240721704
-0.950293481,-0.25965324,-0.171820939,-0.015347302,0.081872135,0.073191285,0.172796279,0.070851974,-0.003092676,0.26266312,-1.391920574,0.240721704
-0.951076686,-0.256971389,-0.171519414,-0.006645203,0.069836557,0.058989286,0.183468238,0.073131613,0.040672112,0.259887044,-1.392371795,0.248314159
-0.951076686,-0.256971389,-0.171519414,-0.006645203,0.069836557,0.058989286,0.183468238,0.073131613,0.040672112,0.259887044,-1.392371795,0.248314159
-0.951076686,-0.256971389,-0.171519414,-0.006645203,0.069836557,0.058989286,0.183468238,0.073131613,0.040672112,0.259887044,-1.392371795,0.248314159
-0.955415428,-0.246399164,-0.162692338,0.018384397,0.050933033,0.050681055,0.433799684,-0.013881413,0.222211227,0.248963097,-1.402129774,0.277421536
-0.955415428,-0.246399164,-0.162692338,0.018384397,0.050933033,0.050681055,0.433799684,-0.013881413,0.222211227,0.248963097,-1.402129774,0.277421536
-0.955415428,-0.246399164,-0.162692338,0.018384397,0.050933033,0.050681055,0.433799684,-0.013881413,0.222211227,0.248963097,-1.402129774,0.277421536
-0.955415428,-0.246399164,-0.162692338,0.018384397,0.050933033,0.050681055,0.433799684,-0.013881413,0.222211227,0.248963097,-1.402129774,0.277421536
-0.955415428,-0.246399164,-0.162692338,0.018384397,0.050933033,0.050681055,0.433799684,-0.013881413,0.222211227,0.248963097,-1.402129774,0.277421536
-0.955415428,-0.246399164,-0.162692338,0.018384397,0.050933033,0.050681055,0.433799684,-0.013881413,0.222211227,0.248963097,-1.402129774,0.277421536
-0.959120333,-0.23717241,-0.154394165,0.029230297,0.016025752,0.028879046,0.388013363,-0.108024999,0.287311763,0.239454167,-1.411190783,0.296824309
-0.959120333,-0.23717241,-0.154394165,0.029230297,0.016025752,0.028879046,0.388013363,-0.108024999,0.287311763,0.239454167,-1.411190783,0.296824309
-0.959120333,-0.23717241,-0.154394165,0.029230297,0.016025752,0.028879046,0.388013363,-0.108024999,0.287311763,0.239454167,-1.411190783,0.296824309
-0.968279243,-0.213052124,-0.130553067,0.020322621,-0.016990364,-0.035077214,0.157332152,-0.317858845,0.364350736,0.214697745,-1.436774581,0.322435538
-0.968279243,-0.213052124,-0.130553067,0.020322621,-0.016990364,-0.035077214,0.157332152,-0.317858845,0.364350736,0.214697745,-1.436774581,0.322435538
-0.968279243,-0.213052124,-0.130553067,0.020322621,-0.016990364,-0.035077214,0.157332152,-0.317858845,0.364350736,0.214697745,-1.436774581,0.322435538
-0.968279243,-0.213052124,-0.130553067,0.020322621,-0.016990364,-0.035077214,0.157332152,-0.317858845,0.364350736,0.214697745,-1.436774581,0.322435538
-0.968279243,-0.213052124,-0.130553067,0.020322621,-0.016990364,-0.035077214,0.157332152,-0.317858845,0.364350736,0.214697745,-1.436774581,0.322435538
-0.968279243,-0.213052124,-0.130553067,0.020322621,-0.016990364,-0.035077214,0.157332152,-0.317858845,0.364350736,0.214697745,-1.436774581,0.322435538
-0.972571909,-0.201266348,-0.116601095,0.004183769,-0.013318866,-0.037600398,0.331681281,-0.278712153,0.3704772,0.202650555,-1.451476403,0.333978528
-0.972571909,-0.201266348,-0.116601095,0.004183769,-0.013318866,-0.037600398,0.331681281,-0.278712153,0.3704772,0.202650555,-1.451476403,0.333978528
-0.972571909,-0.201266348,-0.116601095,0.004183769,-0.013318866,-0.037600398,0.331681281,-0.278712153,0.3704772,0.202650555,-1.451476403,0.333978528
-0.972571909,-0.201266348,-0.116601095,0.004183769,-0.013318866,-0.037600398,0.331681281,-0.278712153,0.3704772,0.202650555,-1.451476403,0.333978528
-0.972571909,-0.201266348,-0.116601095,0.004183769,-0.013318866,-0.037600398,0.331681281,-0.278712153,0.3704772,0.202650555,-1.451476403,0.333978528
-0.972571909,-0.201266348,-0.116601095,0.004183769,-0.013318866,-0.037600398,0.331681281,-0.278712153,0.3704772,0.202650555,-1.451476403,0.333978528
-0.972571909,-0.201266348,-0.116601095,0.004183769,-0.013318866,-0.037600398,0.331681281,-0.278712153,0.3704772,0.202650555,-1.451476403,0.333978528
-0.972571909,-0.201266348,-0.116601095,0.004183769,-0.013318866,-0.037600398,0.331681281,-0.278712153,0.3704772,0.202650555,-1.451476403,0.333978528
-0.972571909,-0.201266348,-0.116601095,0.004183769,-0.013318866,-0.037600398,0.331681281,-0.278712153,0.3704772,0.202650555,-1.451476403,0.333978528
-0.972571909,-0.201266348,-0.116601095,0.004183769,-0.013318866,-0.037600398,0.331681281,-0.278712153,0.3704772,0.202650555,-1.451476403,0.333978528
-0.972571909,-0.201266348,-0.116601095,0.004183769,-0.013318866,-0.037600398,0.331681281,-0.278712153,0.3704772,0.202650555,-1.451476403,0.333978528
-0.972571909,-0.201266348,-0.116601095,0.004183769,-0.013318866,-0.037600398,0.331681281,-0.278712153,0.3704772,0.202650555,-1.451476403,0.333978528
-0.976014972,-0.190005034,-0.106266916,-0.000231445,-0.057264507,-0.056189477,0.331548989,-0.216915756,0.360470951,0.191167274,-1.462345159,0.349649607
-0.976014972,-0.190005034,-0.106266916,-0.000231445,-0.057264507,-0.056189477,0.331548989,-0.216915756,0.360470951,0.191167274,-1.462345159,0.349649607
-0.976014972,-0.190005034,-0.106266916,-0.000231445,-0.057264507,-0.056189477,0.331548989,-0.216915756,0.360470951,0.191167274,-1.462345159,0.349649607
-0.976014972,-0.190005034,-0.106266916,-0.000231445,-0.057264507,-0.056189477,0.331548989,-0.216915756,0.360470951,0.191167274,-1.462345159,0.349649607
-0.976014972,-0.190005034,-0.106266916,-0.000231445,-0.057264507,-0.056189477,0.331548989,-0.216915756,0.360470951,0.191167274,-1.462345159,0.349649607
-0.976014972,-0.190005034,-0.106266916,-0.000231445,-0.057264507,-0.056189477,0.331548989,-0.216915756,0.360470951,0.191167274,-1.462345159,0.349649607
-0.976014972,-0.190005034,-0.106266916,-0.000231445,-0.057264507,-0.056189477,0.331548989,-0.216915756,0.360470951,0.191167274,-1.462345159,0.349649607
-0.976014972,-0.190005034,-0.106266916,-0.000231445,-0.057264507,-0.056189477,0.331548989,-0.216915756,0.360470951,0.191167274,-1.462345159,0.349649607
-0.978758454,-0.179169565,-0.099649623,-0.000143349,-0.085235566,-0.06756717,0.110493496,-0.183851153,0.28494978,0.180142294,-1.469333674,0.359836142
-0.978758454,-0.179169565,-0.099649623,-0.000143349,-0.085235566,-0.06756717,0.110493496,-0.183851153,0.28494978,0.180142294,-1.469333674,0.359836142
-0.978758454,-0.179169565,-0.099649623,-0.000143349,-0.085235566,-0.06756717,0.110493496,-0.183851153,0.28494978,0.180142294,-1.469333674,0.359836142
-0.978758454,-0.179169565,-0.099649623,-0.000143349,-0.085235566,-0.06756717,0.110493496,-0.183851153,0.28494978,0.180142294,-1.469333674,0.359836142
-0.978758454,-0.179169565,-0.099649623,-0.000143349,-0.085235566,-0.06756717,0.110493496,-0.183851153,0.28494978,0.180142294,-1.469333674,0.359836142
-0.978758454,-0.179169565,-0.099649623,-0.000143349,-0.085235566,-0.06756717,0.110493496,-0.183851153,0.28494978,0.180142294,-1.469333674,0.359836142
-0.978758454,-0.179169565,-0.099649623,-0.000143349,-0.085235566,-0.06756717,0.110493496,-0.183851153,0.28494978,0.180142294,-1.469333674,0.359836142
-0.978758454,-0.179169565,-0.099649623,-0.000143349,-0.085235566,-0.06756717,0.110493496,-0.183851153,0.28494978,0.180142294,-1.469333674,0.359836142
-0.980575681,-0.171439096,-0.095288925,-0.013050914,-0.099374712,-0.07792443,-0.107784659,-0.165346876,0.201507822,0.172290205,-1.473923981,0.359952668
-0.980575681,-0.171439096,-0.095288925,-0.013050914,-0.099374712,-0.07792443,-0.107784659,-0.165346876,0.201507822,0.172290205,-1.473923981,0.359952668
-0.980575681,-0.171439096,-0.095288925,-0.013050914,-0.099374712,-0.07792443,-0.107784659,-0.165346876,0.201507822,0.172290205,-1.473923981,0.359952668
-0.980575681,-0.171439096,-0.095288925,-0.013050914,-0.099374712,-0.07792443,-0.107784659,-0.165346876,0.201507822,0.172290205,-1.473923981,0.359952668
-0.980575681,-0.171439096,-0.095288925,-0.013050914,-0.099374712,-0.07792443,-0.107784659,-0.165346876,0.201507822,0.172290205,-1.473923981,0.359952668
-0.980575681,-0.171439096,-0.095288925,-0.013050914,-0.099374712,-0.07792443,-0.107784659,-0.165346876,0.201507822,0.172290205,-1.473923981,0.359952668
-0.980575681,-0.171439096,-0.095288925,-0.013050914,-0.099374712,-0.07792443,-0.107784659,-0.165346876,0.201507822,0.172290205,-1.473923981,0.359952668
-0.980575681,-0.171439096,-0.095288925,-0.013050914,-0.099374712,-0.07792443,-0.107784659,-0.165346876,0.201507822,0.172290205,-1.473923981,0.359952668
-0.980575681,-0.171439096,-0.095288925,-0.013050914,-0.099374712,-0.07792443,-0.107784659,-0.165346876,0.201507822,0.172290205,-1.473923981,0.359952668
-0.981252611,-0.168343961,-0.093827784,-0.019331872,-0.079764724,-0.075876236,-0.153599143,-0.099745817,0.075906798,0.169149409,-1.475465752,0.354048994
-0.981252611,-0.168343961,-0.093827784,-0.019331872,-0.079764724,-0.075876236,-0.153599143,-0.099745817,0.075906798,0.169149409,-1.475465752,0.354048994
-0.981252611,-0.168343961,-0.093827784,-0.019331872,-0.079764724,-0.075876236,-0.153599143,-0.099745817,0.075906798,0.169149409,-1.475465752,0.354048994
-0.981252611,-0.168343961,-0.093827784,-0.019331872,-0.079764724,-0.075876236,-0.153599143,-0.099745817,0.075906798,0.169149409,-1.475465752,0.354048994
-0.981252611,-0.168343961,-0.093827784,-0.019331872,-0.079764724,-0.075876236,-0.153599143,-0.099745817,0.075906798,0.169149409,-1.475465752,0.354048994
-0.981252611,-0.168343961,-0.093827784,-0.019331872,-0.079764724,-0.075876236,-0.153599143,-0.099745817,0.075906798,0.169149409,-1.475465752,0.354048994
-0.981252611,-0.168343961,-0.093827784,-0.019331872,-0.079764724,-0.075876236,-0.153599143,-0.099745817,0.075906798,0.169149409,-1.475465752,0.354048994
-0.981252611,-0.168343961,-0.093827784,-0.019331872,-0.079764724,-0.075876236,-0.153599143,-0.099745817,0.075906798,0.169149409,-1.475465752,0.354048994
-0.981252611,-0.168343961,-0.093827784,-0.019331872,-0.079764724,-0.075876236,-0.153599143,-0.099745817,0.075906798,0.169149409,-1.475465752,0.354048994
-0.980486751,-0.171068251,-0.096857823,-0.016405344,-0.064680889,-0.047501147,-0.118352197,0.04685827,-0.072289325,0.171913797,-1.472330341,0.348168351
-0.980486751,-0.171068251,-0.096857823,-0.016405344,-0.064680889,-0.047501147,-0.118352197,0.04685827,-0.072289325,0.171913797,-1.472330341,0.348168351
-0.980486751,-0.171068251,-0.096857823,-0.016405344,-0.064680889,-0.047501147,-0.118352197,0.04685827,-0.072289325,0.171913797,-1.472330341,0.348168351
-0.980486751,-0.171068251,-0.096857823,-0.016405344,-0.064680889,-0.047501147,-0.118352197,0.04685827,-0.072289325,0.171913797,-1.472330341,0.348168351
-0.980486751,-0.171068251,-0.096857823,-0.016405344,-0.064680889,-0.047501147,-0.118352197,0.04685827,-0.072289325,0.171913797,-1.472330341,0.348168351
-0.980486751,-0.171068251,-0.096857823,-0.016405344,-0.064680889,-0.047501147,-0.118352197,0.04685827,-0.072289325,0.171913797,-1.472330341,0.348168351
-0.978209496,-0.17919971,-0.104850896,-0.009435475,-0.058700889,-0.039264262,-0.247182414,0.1359386,-0.239074841,0.180172937,-1.464017459,0.33995869
-0.978209496,-0.17919971,-0.104850896,-0.009435475,-0.058700889,-0.039264262,-0.247182414,0.1359386,-0.239074841,0.180172937,-1.464017459,0.33995869
-0.978209496,-0.17919971,-0.104850896,-0.009435475,-0.058700889,-0.039264262,-0.247182414,0.1359386,-0.239074841,0.180172937,-1.464017459,0.33995869
-0.978209496,-0.17919971,-0.104850896,-0.009435475,-0.058700889,-0.039264262,-0.247182414,0.1359386,-0.239074841,0.180172937,-1.464017459,0.33995869
-0.978209496,-0.17919971,-0.104850896,-0.009435475,-0.058700889,-0.039264262,-0.247182414,0.1359386,-0.239074841,0.180172937,-1.464017459,0.33995869
-0.978209496,-0.17919971,-0.104850896,-0.009435475,-0.058700889,-0.039264262,-0.247182414,0.1359386,-0.239074841,0.180172937,-1.464017459,0.33995869
-0.978209496,-0.17919971,-0.104850896,-0.009435475,-0.058700889,-0.039264262,-0.247182414,0.1359386,-0.239074841,0.180172937,-1.464017459,0.33995869
-0.978209496,-0.17919971,-0.104850896,-0.009435475,-0.058700889,-0.039264262,-0.247182414,0.1359386,-0.239074841,0.180172937,-1.464017459,0.33995869
-0.974655807,-0.191741347,-0.115245126,-0.02313602,-0.009278789,-0.003403306,-0.204082012,0.214354366,-0.339457393,0.192936114,-1.453100927,0.328215278
-0.974655807,-0.191741347,-0.115245126,-0.02313602,-0.009278789,-0.003403306,-0.204082012,0.214354366,-0.339457393,0.192936114,-1.453100927,0.328215278
-0.974655807,-0.191741347,-0.115245126,-0.02313602,-0.009278789,-0.003403306,-0.204082012,0.214354366,-0.339457393,0.192936114,-1.453100927,0.328215278
-0.974655807,-0.191741347,-0.115245126,-0.02313602,-0.009278789,-0.003403306,-0.204082012,0.214354366,-0.339457393,0.192936114,-1.453100927,0.328215278
-0.974655807,-0.191741347,-0.115245126,-0.02313602,-0.009278789,-0.003403306,-0.204082012,0.214354366,-0.339457393,0.192936114,-1.453100927,0.328215278
-0.974655807,-0.191741347,-0.115245126,-0.02313602,-0.009278789,-0.003403306,-0.204082012,0.214354366,-0.339457393,0.192936114,-1.453100927,0.328215278
-0.974655807,-0.191741347,-0.115245126,-0.02313602,-0.009278789,-0.003403306,-0.204082012,0.214354366,-0.339457393,0.192936114,-1.453100927,0.328215278
-0.974655807,-0.191741347,-0.115245126,-0.02313602,-0.009278789,-0.003403306,-0.204082012,0.214354366,-0.339457393,0.192936114,-1.453100927,0.328215278
-0.974655807,-0.191741347,-0.115245126,-0.02313602,-0.009278789,-0.003403306,-0.204082012,0.214354366,-0.339457393,0.192936114,-1.453100927,0.328215278
-0.974655807,-0.191741347,-0.115245126,-0.02313602,-0.009278789,-0.003403306,-0.204082012,0.214354366,-0.339457393,0.192936114,-1.453100927,0.328215278
-0.970417261,-0.205357119,-0.126959398,-0.018767953,0.012332663,0.020227373,-0.149736702,0.256617218,-0.32656455,0.206828594,-1.440705492,0.31976693
-0.970417261,-0.205357119,-0.126959398,-0.018767953,0.012332663,0.020227373,-0.149736702,0.256617218,-0.32656455,0.206828594,-1.440705492,0.31976693
-0.970417261,-0.205357119,-0.126959398,-0.018767953,0.012332663,0.020227373,-0.149736702,0.256617218,-0.32656455,0.206828594,-1.440705492,0.31976693
-0.970417261,-0.205357119,-0.126959398,-0.018767953,0.012332663,0.020227373,-0.149736702,0.256617218,-0.32656455,0.206828594,-1.440705492,0.31976693
-0.970417261,-0.205357119,-0.126959398,-0.018767953,0.012332663,0.020227373,-0.149736702,0.256617218,-0.32656455,0.206828594,-1.440705492,0.31976693
-0.970417261,-0.205357119,-0.126959398,-0.018767953,0.012332663,0.020227373,-0.149736702,0.256617218,-0.32656455,0.206828594,-1.440705492,0.31976693
-0.970417261,-0.205357119,-0.126959398,-0.018767953,0.012332663,0.020227373,-0.149736702,0.256617218,-0.32656455,0.206828594,-1.440705492,0.31976693
-0.970417261,-0.205357119,-0.126959398,-0.018767953,0.012332663,0.020227373,-0.149736702,0.256617218,-0.32656455,0.206828594,-1.440705492,0.31976693
-0.970417261,-0.205357119,-0.126959398,-0.018767953,0.012332663,0.020227373,-0.149736702,0.256617218,-0.32656455,0.206828594,-1.440705492,0.31976693
-0.970417261,-0.205357119,-0.126959398,-0.018767953,0.012332663,0.020227373,-0.149736702,0.256617218,-0.32656455,0.206828594,-1.440705492,0.31976693
-0.970417261,-0.205357119,-0.126959398,-0.018767953,0.012332663,0.020227373,-0.149736702,0.256617218,-0.32656455,0.206828594,-1.440705492,0.31976693
-0.970417261,-0.205357119,-0.126959398,-0.018767953,0.012332663,0.020227373,-0.149736702,0.256617218,-0.32656455,0.206828594,-1.440705492,0.31976693
-0.970417261,-0.205357119,-0.126959398,-0.018767953,0.012332663,0.020227373,-0.149736702,0.256617218,-0.32656455,0.206828594,-1.440705492,0.31976693
-0.970417261,-0.205357119,-0.126959398,-0.018767953,0.012332663,0.020227373,-0.149736702,0.256617218,-0.32656455,0.206828594,-1.440705492,0.31976693
-0.970417261,-0.205357119,-0.126959398,-0.018767953,0.012332663,0.020227373,-0.149736702,0.256617218,-0.32656455,0.206828594,-1.440705492,0.31976693
-0.970417261,-0.205357119,-0.126959398,-0.018767953,0.012332663,0.020227373,-0.149736702,0.256617218,-0.32656455,0.206828594,-1.440705492,0.31976693
-0.970417261,-0.205357119,-0.126959398,-0.018767953,0.012332663,0.020227373,-0.149736702,0.256617218,-0.32656455,0.206828594,-1.440705492,0.31976693
-0.970417261,-0.205357119,-0.126959398,-0.018767953,0.012332663,0.020227373,-0.149736702,0.256617218,-0.32656455,0.206828594,-1.440705492,0.31976693
-0.96661073,-0.216577262,-0.136959359,0.012871742,0.012139201,0.020934701,-0.222510427,0.17358534,-0.313877195,0.21830715,-1.430042972,0.310858024
-0.96661073,-0.216577262,-0.136959359,0.012871742,0.012139201,0.020934701,-0.222510427,0.17358534,-0.313877195,0.21830715,-1.430042972,0.310858024
-0.96661073,-0.216577262,-0.136959359,0.012871742,0.012139201,0.020934701,-0.222510427,0.17358534,-0.313877195,0.21830715,-1.430042972,0.310858024
-0.96661073,-0.216577262,-0.136959359,0.012871742,0.012139201,0.020934701,-0.222510427,0.17358534,-0.313877195,0.21830715,-1.430042972,0.310858024
-0.96661073,-0.216577262,-0.136959359,0.012871742,0.012139201,0.020934701,-0.222510427,0.17358534,-0.313877195,0.21830715,-1.430042972,0.310858024
-0.96661073,-0.216577262,-0.136959359,0.012871742,0.012139201,0.020934701,-0.222510427,0.17358534,-0.313877195,0.21830715,-1.430042972,0.310858024
-0.96661073,-0.216577262,-0.136959359,0.012871742,0.012139201,0.020934701,-0.222510427,0.17358534,-0.313877195,0.21830715,-1.430042972,0.310858024
-0.96661073,-0.216577262,-0.136959359,0.012871742,0.012139201,0.020934701,-0.222510427,0.17358534,-0.313877195,0.21830715,-1.430042972,0.310858024
-0.96661073,-0.216577262,-0.136959359,0.012871742,0.012139201,0.020934701,-0.222510427,0.17358534,-0.313877195,0.21830715,-1.430042972,0.310858024
-0.96661073,-0.216577262,-0.136959359,0.012871742,0.012139201,0.020934701,-0.222510427,0.17358534,-0.313877195,0.21830715,-1.430042972,0.310858024
-0.96661073,-0.216577262,-0.136959359,0.012871742,0.012139201,0.020934701,-0.222510427,0.17358534,-0.313877195,0.21830715,-1.430042972,0.310858024
-0.96661073,-0.216577262,-0.136959359,0.012871742,0.012139201,0.020934701,-0.222510427,0.17358534,-0.313877195,0.21830715,-1.430042972,0.310858024
-0.963565111,-0.225829765,-0.143328831,0.007659197,0.034636229,0.050024688,-0.291445106,0.130443364,-0.286619782,0.227794718,-1.423130606,0.298818411
-0.963565111,-0.225829765,-0.143328831,0.007659197,0.034636229,0.050024688,-0.291445106,0.130443364,-0.286619782,0.227794718,-1.423130606,0.298818411
-0.963565111,-0.225829765,-0.143328831,0.007659197,0.034636229,0.050024688,-0.291445106,0.130443364,-0.286619782,0.227794718,-1.423130606,0.298818411
-0.963565111,-0.225829765,-0.143328831,0.007659197,0.034636229,0.050024688,-0.291445106,0.130443364,-0.286619782,0.227794718,-1.423130606,0.298818411
-0.963565111,-0.225829765,-0.143328831,0.007659197,0.034636229,0.050024688,-0.291445106,0.130443364,-0.286619782,0.227794718,-1.423130606,0.298818411
-0.963565111,-0.225829765,-0.143328831,0.007659197,0.034636229,0.050024688,-0.291445106,0.130443364,-0.286619782,0.227794718,-1.423130606,0.298818411
-0.963565111,-0.225829765,-0.143328831,0.007659197,0.034636229,0.050024688,-0.291445106,0.130443364,-0.286619782,0.227794718,-1.423130606,0.298818411
-0.963565111,-0.225829765,-0.143328831,0.007659197,0.034636229,0.050024688,-0.291445106,0.130443364,-0.286619782,0.227794718,-1.423130606,0.298818411
-0.963565111,-0.225829765,-0.143328831,0.007659197,0.034636229,0.050024688,-0.291445106,0.130443364,-0.286619782,0.227794718,-1.423130606,0.298818411
-0.961001277,-0.23317346,-0.148683131,-0.002304852,0.057681277,0.055287123,-0.233160451,0.092257865,-0.225454539,0.235339821,-1.417296503,0.285960411
-0.961001277,-0.23317346,-0.148683131,-0.002304852,0.057681277,0.055287123,-0.233160451,0.092257865,-0.225454539,0.235339821,-1.417296503,0.285960411
-0.961001277,-0.23317346,-0.148683131,-0.002304852,0.057681277,0.055287123,-0.233160451,0.092257865,-0.225454539,0.235339821,-1.417296503,0.285960411
-0.961001277,-0.23317346,-0.148683131,-0.002304852,0.057681277,0.055287123,-0.233160451,0.092257865,-0.225454539,0.235339821,-1.417296503,0.285960411
-0.961001277,-0.23317346,-0.148683131,-0.002304852,0.057681277,0.055287123,-0.233160451,0.092257865,-0.225454539,0.235339821,-1.417296503,0.285960411
-0.961001277,-0.23317346,-0.148683131,-0.002304852,0.057681277,0.055287123,-0.233160451,0.092257865,-0.225454539,0.235339821,-1.417296503,0.285960411
-0.961001277,-0.23317346,-0.148683131,-0.002304852,0.057681277,0.055287123,-0.233160451,0.092257865,-0.225454539,0.235339821,-1.417296503,0.285960411
-0.961001277,-0.23317346,-0.148683131,-0.002304852,0.057681277,0.055287123,-0.233160451,0.092257865,-0.225454539,0.235339821,-1.417296503,0.285960411
-0.961001277,-0.23317346,-0.148683131,-0.002304852,0.057681277,0.055287123,-0.233160451,0.092257865,-0.225454539,0.235339821,-1.417296503,0.285960411
-0.959305525,-0.238543913,-0.151095808,0.008526325,0.079149619,0.068640828,-0.00317842,0.071826935,-0.145118579,0.240866209,-1.414574331,0.280635739
-0.959305525,-0.238543913,-0.151095808,0.008526325,0.079149619,0.068640828,-0.00317842,0.071826935,-0.145118579,0.240866209,-1.414574331,0.280635739
-0.959305525,-0.238543913,-0.151095808,0.008526325,0.079149619,0.068640828,-0.00317842,0.071826935,-0.145118579,0.240866209,-1.414574331,0.280635739
-0.959305525,-0.238543913,-0.151095808,0.008526325,0.079149619,0.068640828,-0.00317842,0.071826935,-0.145118579,0.240866209,-1.414574331,0.280635739
-0.959305525,-0.238543913,-0.151095808,0.008526325,0.079149619,0.068640828,-0.00317842,0.071826935,-0.145118579,0.240866209,-1.414574331,0.280635739
-0.959305525,-0.238543913,-0.151095808,0.008526325,0.079149619,0.068640828,-0.00317842,0.071826935,-0.145118579,0.240866209,-1.414574331,0.280635739
-0.959305525,-0.238543913,-0.151095808,0.008526325,0.079149619,0.068640828,-0.00317842,0.071826935,-0.145118579,0.240866209,-1.414574331,0.280635739
-0.959305525,-0.238543913,-0.151095808,0.008526325,0.079149619,0.068640828,-0.00317842,0.071826935,-0.145118579,0.240866209,-1.414574331,0.280635739
-0.959305525,-0.238543913,-0.151095808,0.008526325,0.079149619,0.068640828,-0.00317842,0.071826935,-0.145118579,0.240866209,-1.414574331,0.280635739
-0.958713353,-0.241232708,-0.150583908,0.006728053,0.021947488,0.042571068,-0.073206142,0.014151928,-0.11383725,0.243635873,-1.415000443,0.279734979
-0.958713353,-0.241232708,-0.150583908,0.006728053,0.021947488,0.042571068,-0.073206142,0.014151928,-0.11383725,0.243635873,-1.415000443,0.279734979
-0.958713353,-0.241232708,-0.150583908,0.006728053,0.021947488,0.042571068,-0.073206142,0.014151928,-0.11383725,0.243635873,-1.415000443,0.279734979
-0.958713353,-0.241232708,-0.150583908,0.006728053,0.021947488,0.042571068,-0.073206142,0.014151928,-0.11383725,0.243635873,-1.415000443,0.279734979
-0.958713353,-0.241232708,-0.150583908,0.006728053,0.021947488,0.042571068,-0.073206142,0.014151928,-0.11383725,0.243635873,-1.415000443,0.279734979
-0.958713353,-0.241232708,-0.150583908,0.006728053,0.021947488,0.042571068,-0.073206142,0.014151928,-0.11383725,0.243635873,-1.415000443,0.279734979
-0.958713353,-0.241232708,-0.150583908,0.006728053,0.021947488,0.042571068,-0.073206142,0.014151928,-0.11383725,0.243635873,-1.415000443,0.279734979
-0.958713353,-0.241232708,-0.150583908,0.006728053,0.021947488,0.042571068,-0.073206142,0.014151928,-0.11383725,0.243635873,-1.415000443,0.279734979
-0.958713353,-0.241232708,-0.150583908,0.006728053,0.021947488,0.042571068,-0.073206142,0.014151928,-0.11383725,0.243635873,-1.415000443,0.279734979
-0.958713353,-0.241232708,-0.150583908,0.006728053,0.021947488,0.042571068,-0.073206142,0.014151928,-0.11383725,0.243635873,-1.415000443,0.279734979
-0.958423257,-0.243062288,-0.149484411,-0.009889007,0.001468673,0.04072392,-0.172914505,0.008173471,-0.213951066,0.245521566,-1.416073796,0.273728315
-0.958423257,-0.243062288,-0.149484411,-0.009889007,0.001468673,0.04072392,-0.172914505,0.008173471,-0.213951066,0.245521566,-1.416073796,0.273728315
-0.958423257,-0.243062288,-0.149484411,-0.009889007,0.001468673,0.04072392,-0.172914505,0.008173471,-0.213951066,0.245521566,-1.416073796,0.273728315
-0.958423257,-0.243062288,-0.149484411,-0.009889007,0.001468673,0.04072392,-0.172914505,0.008173471,-0.213951066,0.245521566,-1.416073796,0.273728315
-0.958423257,-0.243062288,-0.149484411,-0.009889007,0.001468673,0.04072392,-0.172914505,0.008173471,-0.213951066,0.245521566,-1.416073796,0.273728315
-0.958423257,-0.243062288,-0.149484411,-0.009889007,0.001468673,0.04072392,-0.172914505,0.008173471,-0.213951066,0.245521566,-1.416073796,0.273728315
-0.958423257,-0.243062288,-0.149484411,-0.009889007,0.001468673,0.04072392,-0.172914505,0.008173471,-0.213951066,0.245521566,-1.416073796,0.273728315
-0.958423257,-0.243062288,-0.149484411,-0.009889007,0.001468673,0.04072392,-0.172914505,0.008173471,-0.213951066,0.245521566,-1.416073796,0.273728315
-0.958423257,-0.243062288,-0.149484411,-0.009889007,0.001468673,0.04072392,-0.172914505,0.008173471,-0.213951066,0.245521566,-1.416073796,0.273728315
-0.958423257,-0.243062288,-0.149484411,-0.009889007,0.001468673,0.04072392,-0.172914505,0.008173471,-0.213951066,0.245521566,-1.416073796,0.273728315
-0.958423257,-0.243062288,-0.149484411,-0.009889007,0.001468673,0.04072392,-0.172914505,0.008173471,-0.213951066,0.245521566,-1.416073796,0.273728315
-0.958423257,-0.243062288,-0.149484411,-0.009889007,0.001468673,0.04072392,-0.172914505,0.008173471,-0.213951066,0.245521566,-1.416073796,0.273728315
-0.958423257,-0.243062288,-0.149484411,-0.009889007,0.001468673,0.04072392,-0.172914505,0.008173471,-0.213951066,0.245521566,-1.416073796,0.273728315
-0.958423257,-0.243062288,-0.149484411,-0.009889007,0.001468673,0.04072392,-0.172914505,0.008173471,-0.213951066,0.245521566,-1.416073796,0.273728315
-0.956424773,-0.251472026,-0.148369491,-0.015473187,0.019644022,0.025540411,-0.076225951,0.042028967,-0.268788636,0.254200851,-1.416893779,0.268435932
-0.956424773,-0.251472026,-0.148369491,-0.015473187,0.019644022,0.025540411,-0.076225951,0.042028967,-0.268788636,0.254200851,-1.416893779,0.268435932
-0.956424773,-0.251472026,-0.148369491,-0.015473187,0.019644022,0.025540411,-0.076225951,0.042028967,-0.268788636,0.254200851,-1.416893779,0.268435932
-0.956424773,-0.251472026,-0.148369491,-0.015473187,0.019644022,0.025540411,-0.076225951,0.042028967,-0.268788636,0.254200851,-1.416893779,0.268435932
-0.956424773,-0.251472026,-0.148369491,-0.015473187,0.019644022,0.025540411,-0.076225951,0.042028967,-0.268788636,0.254200851,-1.416893779,0.268435932
-0.956424773,-0.251472026,-0.148369491,-0.015473187,0.019644022,0.025540411,-0.076225951,0.042028967,-0.268788636,0.254200851,-1.416893779,0.268435932
-0.956424773,-0.251472026,-0.148369491,-0.015473187,0.019644022,0.025540411,-0.076225951,0.042028967,-0.268788636,0.254200851,-1.416893779,0.268435932
-0.956424773,-0.251472026,-0.148369491,-0.015473187,0.019644022,0.025540411,-0.076225951,0.042028967,-0.268788636,0.254200851,-1.416893779,0.268435932
-0.956424773,-0.251472026,-0.148369491,-0.015473187,0.019644022,0.025540411,-0.076225951,0.042028967,-0.268788636,0.254200851,-1.416893779,0.268435932
-0.956424773,-0.251472026,-0.148369491,-0.015473187,0.019644022,0.025540411,-0.076225951,0.042028967,-0.268788636,0.254200851,-1.416893779,0.268435932
-0.956424773,-0.251472026,-0.148369491,-0.015473187,0.019644022,0.025540411,-0.076225951,0.042028967,-0.268788636,0.254200851,-1.416893779,0.268435932
-0.956424773,-0.251472026,-0.148369491,-0.015473187,0.019644022,0.025540411,-0.076225951,0.042028967,-0.268788636,0.254200851,-1.416893779,0.268435932
-0.956424773,-0.251472026,-0.148369491,-0.015473187,0.019644022,0.025540411,-0.076225951,0.042028967,-0.268788636,0.254200851,-1.416893779,0.268435932
-0.956424773,-0.251472026,-0.148369491,-0.015473187,0.019644022,0.025540411,-0.076225951,0.042028967,-0.268788636,0.254200851,-1.416893779,0.268435932
-0.953722537,-0.259227186,-0.152363569,-0.017382026,-0.007970721,0.044793248,-0.006830972,0.204604477,-0.159637183,0.262221945,-1.412378299,0.264792422
-0.953722537,-0.259227186,-0.152363569,-0.017382026,-0.007970721,0.044793248,-0.006830972,0.204604477,-0.159637183,0.262221945,-1.412378299,0.264792422
-0.953722537,-0.259227186,-0.152363569,-0.017382026,-0.007970721,0.044793248,-0.006830972,0.204604477,-0.159637183,0.262221945,-1.412378299,0.264792422
-0.953722537,-0.259227186,-0.152363569,-0.017382026,-0.007970721,0.044793248,-0.006830972,0.204604477,-0.159637183,0.262221945,-1.412378299,0.264792422
-0.953722537,-0.259227186,-0.152363569,-0.017382026,-0.007970721,0.044793248,-0.006830972,0.204604477,-0.159637183,0.262221945,-1.412378299,0.264792422
-0.953722537,-0.259227186,-0.152363569,-0.017382026,-0.007970721,0.044793248,-0.006830972,0.204604477,-0.159637183,0.262221945,-1.412378299,0.264792422
-0.953722537,-0.259227186,-0.152363569,-0.017382026,-0.007970721,0.044793248,-0.006830972,0.204604477,-0.159637183,0.262221945,-1.412378299,0.264792422
-0.953722537,-0.259227186,-0.152363569,-0.017382026,-0.007970721,0.044793248,-0.006830972,0.204604477,-0.159637183,0.262221945,-1.412378299,0.264792422
-0.953722537,-0.259227186,-0.152363569,-0.017382026,-0.007970721,0.044793248,-0.006830972,0.204604477,-0.159637183,0.262221945,-1.412378299,0.264792422
-0.95126456,-0.265409142,-0.157014281,0.016216636,0.028484643,0.009343684,0.202364907,0.122497708,-0.212138504,0.268628267,-1.407212782,0.26839284
-0.95126456,-0.265409142,-0.157014281,0.016216636,0.028484643,0.009343684,0.202364907,0.122497708,-0.212138504,0.268628267,-1.407212782,0.26839284
-0.95126456,-0.265409142,-0.157014281,0.016216636,0.028484643,0.009343684,0.202364907,0.122497708,-0.212138504,0.268628267,-1.407212782,0.26839284
-0.95126456,-0.265409142,-0.157014281,0.016216636,0.028484643,0.009343684,0.202364907,0.122497708,-0.212138504,0.268628267,-1.407212782,0.26839284
-0.95126456,-0.265409142,-0.157014281,0.016216636,0.028484643,0.009343684,0.202364907,0.122497708,-0.212138504,0.268628267,-1.407212782,0.26839284
-0.95126456,-0.265409142,-0.157014281,0.016216636,0.028484643,0.009343684,0.202364907,0.122497708,-0.212138504,0.268628267,-1.407212782,0.26839284
-0.95126456,-0.265409142,-0.157014281,0.016216636,0.028484643,0.009343684,0.202364907,0.122497708,-0.212138504,0.268628267,-1.407212782,0.26839284
-0.95126456,-0.265409142,-0.157014281,0.016216636,0.028484643,0.009343684,0.202364907,0.122497708,-0.212138504,0.268628267,-1.407212782,0.26839284
-0.95126456,-0.265409142,-0.157014281,0.016216636,0.028484643,0.009343684,0.202364907,0.122497708,-0.212138504,0.268628267,-1.407212782,0.26839284
-0.95126456,-0.265409142,-0.157014281,0.016216636,0.028484643,0.009343684,0.202364907,0.122497708,-0.212138504,0.268628267,-1.407212782,0.26839284
-0.95126456,-0.265409142,-0.157014281,0.016216636,0.028484643,0.009343684,0.202364907,0.122497708,-0.212138504,0.268628267,-1.407212782,0.26839284
-0.95126456,-0.265409142,-0.157014281,0.016216636,0.028484643,0.009343684,0.202364907,0.122497708,-0.212138504,0.268628267,-1.407212782,0.26839284
-0.95126456,-0.265409142,-0.157014281,0.016216636,0.028484643,0.009343684,0.202364907,0.122497708,-0.212138504,0.268628267,-1.407212782,0.26839284
-0.95126456,-0.265409142,-0.157014281,0.016216636,0.028484643,0.009343684,0.202364907,0.122497708,-0.212138504,0.268628267,-1.407212782,0.26839284
-0.949042678,-0.273629665,-0.156348661,0.00744915,-0.015418768,-0.005039871,-0.125763178,0.055095583,-0.151346326,0.27716469,-1.407519362,0.271088015
-0.949042678,-0.273629665,-0.156348661,0.00744915,-0.015418768,-0.005039871,-0.125763178,0.055095583,-0.151346326,0.27716469,-1.407519362,0.271088015
-0.949042678,-0.273629665,-0.156348661,0.00744915,-0.015418768,-0.005039871,-0.125763178,0.055095583,-0.151346326,0.27716469,-1.407519362,0.271088015
-0.949042678,-0.273629665,-0.156348661,0.00744915,-0.015418768,-0.005039871,-0.125763178,0.055095583,-0.151346326,0.27716469,-1.407519362,0.271088015
-0.949042678,-0.273629665,-0.156348661,0.00744915,-0.015418768,-0.005039871,-0.125763178,0.055095583,-0.151346326,0.27716469,-1.407519362,0.271088015
-0.949042678,-0.273629665,-0.156348661,0.00744915,-0.015418768,-0.005039871,-0.125763178,0.055095583,-0.151346326,0.27716469,-1.407519362,0.271088015
-0.949042678,-0.273629665,-0.156348661,0.00744915,-0.015418768,-0.005039871,-0.125763178,0.055095583,-0.151346326,0.27716469,-1.407519362,0.271088015
-0.949042678,-0.273629665,-0.156348661,0.00744915,-0.015418768,-0.005039871,-0.125763178,0.055095583,-0.151346326,0.27716469,-1.407519362,0.271088015
-0.949042678,-0.273629665,-0.156348661,0.00744915,-0.015418768,-0.005039871,-0.125763178,0.055095583,-0.151346326,0.27716469,-1.407519362,0.271088015
-0.949042678,-0.273629665,-0.156348661,0.00744915,-0.015418768,-0.005039871,-0.125763178,0.055095583,-0.151346326,0.27716469,-1.407519362,0.271088015
-0.949042678,-0.273629665,-0.156348661,0.00744915,-0.015418768,-0.005039871,-0.125763178,0.055095583,-0.151346326,0.27716469,-1.407519362,0.271088015
-0.949042678,-0.273629665,-0.156348661,0.00744915,-0.015418768,-0.005039871,-0.125763178,0.055095583,-0.151346326,0.27716469,-1.407519362,0.271088015
-0.949042678,-0.273629665,-0.156348661,0.00744915,-0.015418768,-0.005039871,-0.125763178,0.055095583,-0.151346326,0.27716469,-1.407519362,0.271088015
-0.949042678,-0.273629665,-0.156348661,0.00744915,-0.015418768,-0.005039871,-0.125763178,0.055095583,-0.151346326,0.27716469,-1.407519362,0.271088015
-0.949042678,-0.273629665,-0.156348661,0.00744915,-0.015418768,-0.005039871,-0.125763178,0.055095583,-0.151346326,0.27716469,-1.407519362,0.271088015
-0.949042678,-0.273629665,-0.156348661,0.00744915,-0.015418768,-0.005039871,-0.125763178,0.055095583,-0.151346326,0.27716469,-1.407519362,0.271088015
-0.949042678,-0.273629665,-0.156348661,0.00744915,-0.015418768,-0.005039871,-0.125763178,0.055095583,-0.151346326,0.27716469,-1.407519362,0.271088015
-0.949042678,-0.273629665,-0.156348661,0.00744915,-0.015418768,-0.005039871,-0.125763178,0.055095583,-0.151346326,0.27716469,-1.407519362,0.271088015
-0.949042678,-0.273629665,-0.156348661,0.00744915,-0.015418768,-0.005039871,-0.125763178,0.055095583,-0.151346326,0.27716469,-1.407519362,0.271088015
-0.948750913,-0.270862699,-0.162803739,0.002610147,-0.013592869,-0.011966646,-0.52947396,0.09142407,0.040042438,0.274289119,-1.40085349,0.254520111
-0.948750913,-0.270862699,-0.162803739,0.002610147,-0.013592869,-0.011966646,-0.52947396,0.09142407,0.040042438,0.274289119,-1.40085349,0.254520111
-0.948750913,-0.270862699,-0.162803739,0.002610147,-0.013592869,-0.011966646,-0.52947396,0.09142407,0.040042438,0.274289119,-1.40085349,0.254520111
-0.948750913,-0.270862699,-0.162803739,0.002610147,-0.013592869,-0.011966646,-0.52947396,0.09142407,0.040042438,0.274289119,-1.40085349,0.254520111
-0.948750913,-0.270862699,-0.162803739,0.002610147,-0.013592869,-0.011966646,-0.52947396,0.09142407,0.040042438,0.274289119,-1.40085349,0.254520111
-0.948750913,-0.270862699,-0.162803739,0.002610147,-0.013592869,-0.011966646,-0.52947396,0.09142407,0.040042438,0.274289119,-1.40085349,0.254520111
-0.948750913,-0.270862699,-0.162803739,0.002610147,-0.013592869,-0.011966646,-0.52947396,0.09142407,0.040042438,0.274289119,-1.40085349,0.254520111
-0.948750913,-0.270862699,-0.162803739,0.002610147,-0.013592869,-0.011966646,-0.52947396,0.09142407,0.040042438,0.274289119,-1.40085349,0.254520111
-0.948750913,-0.270862699,-0.162803739,0.002610147,-0.013592869,-0.011966646,-0.52947396,0.09142407,0.040042438,0.274289119,-1.40085349,0.254520111
-0.948750913,-0.270862699,-0.162803739,0.002610147,-0.013592869,-0.011966646,-0.52947396,0.09142407,0.040042438,0.274289119,-1.40085349,0.254520111
-0.948750913,-0.270862699,-0.162803739,0.002610147,-0.013592869,-0.011966646,-0.52947396,0.09142407,0.040042438,0.274289119,-1.40085349,0.254520111
-0.948750913,-0.270862699,-0.162803739,0.002610147,-0.013592869,-0.011966646,-0.52947396,0.09142407,0.040042438,0.274289119,-1.40085349,0.254520111
-0.948750913,-0.270862699,-0.162803739,0.002610147,-0.013592869,-0.011966646,-0.52947396,0.09142407,0.040042438,0.274289119,-1.40085349,0.254520111
-0.948750913,-0.270862699,-0.162803739,0.002610147,-0.013592869,-0.011966646,-0.52947396,0.09142407,0.040042438,0.274289119,-1.40085349,0.254520111
-0.948750913,-0.270862699,-0.162803739,0.002610147,-0.013592869,-0.011966646,-0.52947396,0.09142407,0.040042438,0.274289119,-1.40085349,0.254520111
-0.94820416,-0.268360227,-0.169975206,-0.014675319,0.053377956,-0.032688439,-0.173670307,0.098126628,-0.060553785,0.271690405,-1.393420133,0.239803872
-0.94820416,-0.268360227,-0.169975206,-0.014675319,0.053377956,-0.032688439,-0.173670307,0.098126628,-0.060553785,0.271690405,-1.393420133,0.239803872
-0.94820416,-0.268360227,-0.169975206,-0.014675319,0.053377956,-0.032688439,-0.173670307,0.098126628,-0.060553785,0.271690405,-1.393420133,0.239803872
-0.94820416,-0.268360227,-0.169975206,-0.014675319,0.053377956,-0.032688439,-0.173670307,0.098126628,-0.060553785,0.271690405,-1.393420133,0.239803872
-0.94820416,-0.268360227,-0.169975206,-0.014675319,0.053377956,-0.032688439,-0.173670307,0.098126628,-0.060553785,0.271690405,-1.393420133,0.239803872
-0.94820416,-0.268360227,-0.169975206,-0.014675319,0.053377956,-0.032688439,-0.173670307,0.098126628,-0.060553785,0.271690405,-1.393420133,0.239803872
-0.94820416,-0.268360227,-0.169975206,-0.014675319,0.053377956,-0.032688439,-0.173670307,0.098126628,-0.060553785,0.271690405,-1.393420133,0.239803872
-0.94820416,-0.268360227,-0.169975206,-0.014675319,0.053377956,-0.032688439,-0.173670307,0.098126628,-0.060553785,0.271690405,-1.393420133,0.239803872
-0.94820416,-0.268360227,-0.169975206,-0.014675319,0.053377956,-0.032688439,-0.173670307,0.098126628,-0.060553785,0.271690405,-1.393420133,0.239803872
-0.94820416,-0.268360227,-0.169975206,-0.014675319,0.053377956,-0.032688439,-0.173670307,0.098126628,-0.060553785,0.271690405,-1.393420133,0.239803872
-0.94820416,-0.268360227,-0.169975206,-0.014675319,0.053377956,-0.032688439,-0.173670307,0.098126628,-0.060553785,0.271690405,-1.393420133,0.239803872
-0.94820416,-0.268360227,-0.169975206,-0.014675319,0.053377956,-0.032688439,-0.173670307,0.098126628,-0.060553785,0.271690405,-1.393420133,0.239803872
-0.94820416,-0.268360227,-0.169975206,-0.014675319,0.053377956,-0.032688439,-0.173670307,0.098126628,-0.060553785,0.271690405,-1.393420133,0.239803872
-0.94820416,-0.268360227,-0.169975206,-0.014675319,0.053377956,-0.032688439,-0.173670307,0.098126628,-0.060553785,0.271690405,-1.393420133,0.239803872
-0.94820416,-0.268360227,-0.169975206,-0.014675319,0.053377956,-0.032688439,-0.173670307,0.098126628,-0.060553785,0.271690405,-1.393420133,0.239803872
-0.94820416,-0.268360227,-0.169975206,-0.014675319,0.053377956,-0.032688439,-0.173670307,0.098126628,-0.060553785,0.271690405,-1.393420133,0.239803872
-0.94820416,-0.268360227,-0.169975206,-0.014675319,0.053377956,-0.032688439,-0.173670307,0.098126628,-0.060553785,0.271690405,-1.393420133,0.239803872
-0.946023524,-0.273245662,-0.174288139,-0.01238519,0.053838342,-0.041757464,-0.04189603,0.142652288,-0.124757536,0.276765481,-1.388606905,0.236636153
-0.946023524,-0.273245662,-0.174288139,-0.01238519,0.053838342,-0.041757464,-0.04189603,0.142652288,-0.124757536,0.276765481,-1.388606905,0.236636153
-0.946023524,-0.273245662,-0.174288139,-0.01238519,0.053838342,-0.041757464,-0.04189603,0.142652288,-0.124757536,0.276765481,-1.388606905,0.236636153
-0.946023524,-0.273245662,-0.174288139,-0.01238519,0.053838342,-0.041757464,-0.04189603,0.142652288,-0.124757536,0.276765481,-1.388606905,0.236636153
-0.946023524,-0.273245662,-0.174288139,-0.01238519,0.053838342,-0.041757464,-0.04189603,0.142652288,-0.124757536,0.276765481,-1.388606905,0.236636153
-0.946023524,-0.273245662,-0.174288139,-0.01238519,0.053838342,-0.041757464,-0.04189603,0.142652288,-0.124757536,0.276765481,-1.388606905,0.236636153
-0.946023524,-0.273245662,-0.174288139,-0.01238519,0.053838342,-0.041757464,-0.04189603,0.142652288,-0.124757536,0.276765481,-1.388606905,0.236636153
-0.946023524,-0.273245662,-0.174288139,-0.01238519,0.053838342,-0.041757464,-0.04189603,0.142652288,-0.124757536,0.276765481,-1.388606905,0.236636153
-0.946023524,-0.273245662,-0.174288139,-0.01238519,0.053838342,-0.041757464,-0.04189603,0.142652288,-0.124757536,0.276765481,-1.388606905,0.236636153
-0.946023524,-0.273245662,-0.174288139,-0.01238519,0.053838342,-0.041757464,-0.04189603,0.142652288,-0.124757536,0.276765481,-1.388606905,0.236636153
-0.946023524,-0.273245662,-0.174288139,-0.01238519,0.053838342,-0.041757464,-0.04189603,0.142652288,-0.124757536,0.276765481,-1.388606905,0.236636153
-0.946023524,-0.273245662,-0.174288139,-0.01238519,0.053838342,-0.041757464,-0.04189603,0.142652288,-0.124757536,0.276765481,-1.388606905,0.236636153
-0.946023524,-0.273245662,-0.174288139,-0.01238519,0.053838342,-0.041757464,-0.04189603,0.142652288,-0.124757536,0.276765481,-1.388606905,0.236636153
-0.946023524,-0.273245662,-0.174288139,-0.01238519,0.053838342,-0.041757464,-0.04189603,0.142652288,-0.124757536,0.276765481,-1.388606905,0.236636153
-0.946023524,-0.273245662,-0.174288139,-0.01238519,0.053838342,-0.041757464,-0.04189603,0.142652288,-0.124757536,0.276765481,-1.388606905,0.236636153
-0.946023524,-0.273245662,-0.174288139,-0.01238519,0.053838342,-0.041757464,-0.04189603,0.142652288,-0.124757536,0.276765481,-1.388606905,0.236636153
-0.944172442,-0.272548079,-0.185083359,-0.025985539,-0.022283465,-0.011217356,-0.312455028,0.254344076,-0.006669035,0.276040388,-1.377223789,0.227804696
-0.944172442,-0.272548079,-0.185083359,-0.025985539,-0.022283465,-0.011217356,-0.312455028,0.254344076,-0.006669035,0.276040388,-1.377223789,0.227804696
-0.944172442,-0.272548079,-0.185083359,-0.025985539,-0.022283465,-0.011217356,-0.312455028,0.254344076,-0.006669035,0.276040388,-1.377223789,0.227804696
-0.944172442,-0.272548079,-0.185083359,-0.025985539,-0.022283465,-0.011217356,-0.312455028,0.254344076,-0.006669035,0.276040388,-1.377223789,0.227804696
-0.944172442,-0.272548079,-0.185083359,-0.025985539,-0.022283465,-0.011217356,-0.312455028,0.254344076,-0.006669035,0.276040388,-1.377223789,0.227804696
-0.944172442,-0.272548079,-0.185083359,-0.025985539,-0.022283465,-0.011217356,-0.312455028,0.254344076,-0.006669035,0.276040388,-1.377223789,0.227804696
-0.944172442,-0.272548079,-0.185083359,-0.025985539,-0.022283465,-0.011217356,-0.312455028,0.254344076,-0.006669035,0.276040388,-1.377223789,0.227804696
-0.944172442,-0.272548079,-0.185083359,-0.025985539,-0.022283465,-0.011217356,-0.312455028,0.254344076,-0.006669035,0.276040388,-1.377223789,0.227804696
-0.944172442,-0.272548079,-0.185083359,-0.025985539,-0.022283465,-0.011217356,-0.312455028,0.254344076,-0.006669035,0.276040388,-1.377223789,0.227804696
-0.944172442,-0.272548079,-0.185083359,-0.025985539,-0.022283465,-0.011217356,-0.312455028,0.254344076,-0.006669035,0.276040388,-1.377223789,0.227804696
-0.944172442,-0.272548079,-0.185083359,-0.025985539,-0.022283465,-0.011217356,-0.312455028,0.254344076,-0.006669035,0.276040388,-1.377223789,0.227804696
-0.944172442,-0.272548079,-0.185083359,-0.025985539,-0.022283465,-0.011217356,-0.312455028,0.254344076,-0.006669035,0.276040388,-1.377223789,0.227804696
-0.944172442,-0.272548079,-0.185083359,-0.025985539,-0.022283465,-0.011217356,-0.312455028,0.254344076,-0.006669035,0.276040388,-1.377223789,0.227804696
-0.944172442,-0.272548079,-0.185083359,-0.025985539,-0.022283465,-0.011217356,-0.312455028,0.254344076,-0.006669035,0.276040388,-1.377223789,0.227804696
-0.944172442,-0.272548079,-0.185083359,-0.025985539,-0.022283465,-0.011217356,-0.312455028,0.254344076,-0.006669035,0.276040388,-1.377223789,0.227804696
-0.944172442,-0.272548079,-0.185083359,-0.025985539,-0.022283465,-0.011217356,-0.312455028,0.254344076,-0.006669035,0.276040388,-1.377223789,0.227804696
-0.941967487,-0.271421671,-0.197553784,-0.003715813,0.059399456,-0.019025564,0.059527878,0.213962138,-0.125454441,0.27486983,-1.36406789,0.220635222
-0.941967487,-0.271421671,-0.197553784,-0.003715813,0.059399456,-0.019025564,0.059527878,0.213962138,-0.125454441,0.27486983,-1.36406789,0.220635222
-0.941967487,-0.271421671,-0.197553784,-0.003715813,0.059399456,-0.019025564,0.059527878,0.213962138,-0.125454441,0.27486983,-1.36406789,0.220635222
-0.941967487,-0.271421671,-0.197553784,-0.003715813,0.059399456,-0.019025564,0.059527878,0.213962138,-0.125454441,0.27486983,-1.36406789,0.220635222
-0.941967487,-0.271421671,-0.197553784,-0.003715813,0.059399456,-0.019025564,0.059527878,0.213962138,-0.125454441,0.27486983,-1.36406789,0.220635222
-0.941967487,-0.271421671,-0.197553784,-0.003715813,0.059399456,-0.019025564,0.059527878,0.213962138,-0.125454441,0.27486983,-1.36406789,0.220635222
-0.941967487,-0.271421671,-0.197553784,-0.003715813,0.059399456,-0.019025564,0.059527878,0.213962138,-0.125454441,0.27486983,-1.36406789,0.220635222
-0.941967487,-0.271421671,-0.197553784,-0.003715813,0.059399456,-0.019025564,0.059527878,0.213962138,-0.125454441,0.27486983,-1.36406789,0.220635222
-0.941967487,-0.271421671,-0.197553784,-0.003715813,0.059399456,-0.019025564,0.059527878,0.213962138,-0.125454441,0.27486983,-1.36406789,0.220635222
-0.941967487,-0.271421671,-0.197553784,-0.003715813,0.059399456,-0.019025564,0.059527878,0.213962138,-0.125454441,0.27486983,-1.36406789,0.220635222
-0.941967487,-0.271421671,-0.197553784,-0.003715813,0.059399456,-0.019025564,0.059527878,0.213962138,-0.125454441,0.27486983,-1.36406789,0.220635222
-0.941967487,-0.271421671,-0.197553784,-0.003715813,0.059399456,-0.019025564,0.059527878,0.213962138,-0.125454441,0.27486983,-1.36406789,0.220635222
-0.941967487,-0.271421671,-0.197553784,-0.003715813,0.059399456,-0.019025564,0.059527878,0.213962138,-0.125454441,0.27486983,-1.36406789,0.220635222
-0.941967487,-0.271421671,-0.197553784,-0.003715813,0.059399456,-0.019025564,0.059527878,0.213962138,-0.125454441,0.27486983,-1.36406789,0.220635222
-0.941967487,-0.271421671,-0.197553784,-0.003715813,0.059399456,-0.019025564,0.059527878,0.213962138,-0.125454441,0.27486983,-1.36406789,0.220635222
-0.941967487,-0.271421671,-0.197553784,-0.003715813,0.059399456,-0.019025564,0.059527878,0.213962138,-0.125454441,0.27486983,-1.36406789,0.220635222
-0.941967487,-0.271421671,-0.197553784,-0.003715813,0.059399456,-0.019025564,0.059527878,0.213962138,-0.125454441,0.27486983,-1.36406789,0.220635222
-0.938309252,-0.279479206,-0.203634992,0.00022465,0.028577507,-0.010411263,0.19657068,0.190901026,-0.2023146,0.283251643,-1.357087038,0.225310506
-0.938309252,-0.279479206,-0.203634992,0.00022465,0.028577507,-0.010411263,0.19657068,0.190901026,-0.2023146,0.283251643,-1.357087038,0.225310506
-0.938309252,-0.279479206,-0.203634992,0.00022465,0.028577507,-0.010411263,0.19657068,0.190901026,-0.2023146,0.283251643,-1.357087038,0.225310506
-0.938309252,-0.279479206,-0.203634992,0.00022465,0.028577507,-0.010411263,0.19657068,0.190901026,-0.2023146,0.283251643,-1.357087038,0.225310506
-0.938309252,-0.279479206,-0.203634992,0.00022465,0.028577507,-0.010411263,0.19657068,0.190901026,-0.2023146,0.283251643,-1.357087038,0.225310506
-0.938309252,-0.279479206,-0.203634992,0.00022465,0.028577507,-0.010411263,0.19657068,0.190901026,-0.2023146,0.283251643,-1.357087038,0.225310506
-0.938309252,-0.279479206,-0.203634992,0.00022465,0.028577507,-0.010411263,0.19657068,0.190901026,-0.2023146,0.283251643,-1.357087038,0.225310506
-0.938309252,-0.279479206,-0.203634992,0.00022465,0.028577507,-0.010411263,0.19657068,0.190901026,-0.2023146,0.283251643,-1.357087038,0.225310506
-0.938309252,-0.279479206,-0.203634992,0.00022465,0.028577507,-0.010411263,0.19657068,0.190901026,-0.2023146,0.283251643,-1.357087038,0.225310506
-0.938309252,-0.279479206,-0.203634992,0.00022465,0.028577507,-0.010411263,0.19657068,0.190901026,-0.2023146,0.283251643,-1.357087038,0.225310506
-0.938309252,-0.279479206,-0.203634992,0.00022465,0.028577507,-0.010411263,0.19657068,0.190901026,-0.2023146,0.283251643,-1.357087038,0.225310506
-0.938309252,-0.279479206,-0.203634992,0.00022465,0.028577507,-0.010411263,0.19657068,0.190901026,-0.2023146,0.283251643,-1.357087038,0.225310506
-0.938309252,-0.279479206,-0.203634992,0.00022465,0.028577507,-0.010411263,0.19657068,0.190901026,-0.2023146,0.283251643,-1.357087038,0.225310506
-0.938309252,-0.279479206,-0.203634992,0.00022465,0.028577507,-0.010411263,0.19657068,0.190901026,-0.2023146,0.283251643,-1.357087038,0.225310506
-0.938309252,-0.279479206,-0.203634992,0.00022465,0.028577507,-0.010411263,0.19657068,0.190901026,-0.2023146,0.283251643,-1.357087038,0.225310506
-0.938309252,-0.279479206,-0.203634992,0.00022465,0.028577507,-0.010411263,0.19657068,0.190901026,-0.2023146,0.283251643,-1.357087038,0.225310506
-0.938309252,-0.279479206,-0.203634992,0.00022465,0.028577507,-0.010411263,0.19657068,0.190901026,-0.2023146,0.283251643,-1.357087038,0.225310506
-0.938309252,-0.279479206,-0.203634992,0.00022465,0.028577507,-0.010411263,0.19657068,0.190901026,-0.2023146,0.283251643,-1.357087038,0.225310506
-0.938309252,-0.279479206,-0.203634992,0.00022465,0.028577507,-0.010411263,0.19657068,0.190901026,-0.2023146,0.283251643,-1.357087038,0.225310506
-0.936413109,-0.281841397,-0.209035933,0.023292065,0.047953308,0.011514783,-0.072594777,0.119610943,0.003217364,0.285712754,-1.351166791,0.228381089
-0.936413109,-0.281841397,-0.209035933,0.023292065,0.047953308,0.011514783,-0.072594777,0.119610943,0.003217364,0.285712754,-1.351166791,0.228381089
-0.936413109,-0.281841397,-0.209035933,0.023292065,0.047953308,0.011514783,-0.072594777,0.119610943,0.003217364,0.285712754,-1.351166791,0.228381089
-0.936413109,-0.281841397,-0.209035933,0.023292065,0.047953308,0.011514783,-0.072594777,0.119610943,0.003217364,0.285712754,-1.351166791,0.228381089
-0.936413109,-0.281841397,-0.209035933,0.023292065,0.047953308,0.011514783,-0.072594777,0.119610943,0.003217364,0.285712754,-1.351166791,0.228381089
-0.936413109,-0.281841397,-0.209035933,0.023292065,0.047953308,0.011514783,-0.072594777,0.119610943,0.003217364,0.285712754,-1.351166791,0.228381089
-0.936413109,-0.281841397,-0.209035933,0.023292065,0.047953308,0.011514783,-0.072594777,0.119610943,0.003217364,0.285712754,-1.351166791,0.228381089
-0.936413109,-0.281841397,-0.209035933,0.023292065,0.047953308,0.011514783,-0.072594777,0.119610943,0.003217364,0.285712754,-1.351166791,0.228381089
-0.936413109,-0.281841397,-0.209035933,0.023292065,0.047953308,0.011514783,-0.072594777,0.119610943,0.003217364,0.285712754,-1.351166791,0.228381089
-0.936413109,-0.281841397,-0.209035933,0.023292065,0.047953308,0.011514783,-0.072594777,0.119610943,0.003217364,0.285712754,-1.351166791,0.228381089
-0.936413109,-0.281841397,-0.209035933,0.023292065,0.047953308,0.011514783,-0.072594777,0.119610943,0.003217364,0.285712754,-1.351166791,0.228381089
-0.936413109,-0.281841397,-0.209035933,0.023292065,0.047953308,0.011514783,-0.072594777,0.119610943,0.003217364,0.285712754,-1.351166791,0.228381089
-0.936413109,-0.281841397,-0.209035933,0.023292065,0.047953308,0.011514783,-0.072594777,0.119610943,0.003217364,0.285712754,-1.351166791,0.228381089
-0.936413109,-0.281841397,-0.209035933,0.023292065,0.047953308,0.011514783,-0.072594777,0.119610943,0.003217364,0.285712754,-1.351166791,0.228381089
-0.936413109,-0.281841397,-0.209035933,0.023292065,0.047953308,0.011514783,-0.072594777,0.119610943,0.003217364,0.285712754,-1.351166791,0.228381089
-0.936413109,-0.281841397,-0.209035933,0.023292065,0.047953308,0.011514783,-0.072594777,0.119610943,0.003217364,0.285712754,-1.351166791,0.228381089
-0.936413109,-0.281841397,-0.209035933,0.023292065,0.047953308,0.011514783,-0.072594777,0.119610943,0.003217364,0.285712754,-1.351166791,0.228381089
-0.936413109,-0.281841397,-0.209035933,0.023292065,0.047953308,0.011514783,-0.072594777,0.119610943,0.003217364,0.285712754,-1.351166791,0.228381089
-0.936413109,-0.281841397,-0.209035933,0.023292065,0.047953308,0.011514783,-0.072594777,0.119610943,0.003217364,0.285712754,-1.351166791,0.228381089
-0.935160637,-0.279879808,-0.217122123,0.004613996,0.036805958,0.015893042,-0.257596701,0.198628739,-0.030129779,0.283668904,-1.342661971,0.220826428
-0.935160637,-0.279879808,-0.217122123,0.004613996,0.036805958,0.015893042,-0.257596701,0.198628739,-0.030129779,0.283668904,-1.342661971,0.220826428
-0.935160637,-0.279879808,-0.217122123,0.004613996,0.036805958,0.015893042,-0.257596701,0.198628739,-0.030129779,0.283668904,-1.342661971,0.220826428
-0.935160637,-0.279879808,-0.217122123,0.004613996,0.036805958,0.015893042,-0.257596701,0.198628739,-0.030129779,0.283668904,-1.342661971,0.220826428
-0.935160637,-0.279879808,-0.217122123,0.004613996,0.036805958,0.015893042,-0.257596701,0.198628739,-0.030129779,0.283668904,-1.342661971,0.220826428
-0.935160637,-0.279879808,-0.217122123,0.004613996,0.036805958,0.015893042,-0.257596701,0.198628739,-0.030129779,0.283668904,-1.342661971,0.220826428
-0.935160637,-0.279879808,-0.217122123,0.004613996,0.036805958,0.015893042,-0.257596701,0.198628739,-0.030129779,0.283668904,-1.342661971,0.220826428
-0.935160637,-0.279879808,-0.217122123,0.004613996,0.036805958,0.015893042,-0.257596701,0.198628739,-0.030129779,0.283668904,-1.342661971,0.220826428
-0.935160637,-0.279879808,-0.217122123,0.004613996,0.036805958,0.015893042,-0.257596701,0.198628739,-0.030129779,0.283668904,-1.342661971,0.220826428
-0.935160637,-0.279879808,-0.217122123,0.004613996,0.036805958,0.015893042,-0.257596701,0.198628739,-0.030129779,0.283668904,-1.342661971,0.220826428
-0.935160637,-0.279879808,-0.217122123,0.004613996,0.036805958,0.015893042,-0.257596701,0.198628739,-0.030129779,0.283668904,-1.342661971,0.220826428
-0.935160637,-0.279879808,-0.217122123,0.004613996,0.036805958,0.015893042,-0.257596701,0.198628739,-0.030129779,0.283668904,-1.342661971,0.220826428
-0.935160637,-0.279879808,-0.217122123,0.004613996,0.036805958,0.015893042,-0.257596701,0.198628739,-0.030129779,0.283668904,-1.342661971,0.220826428
-0.935160637,-0.279879808,-0.217122123,0.004613996,0.036805958,0.015893042,-0.257596701,0.198628739,-0.030129779,0.283668904,-1.342661971,0.220826428
-0.933055878,-0.279594898,-0.226347685,0.013144851,0.00447762,-0.004376829,-0.135325357,0.21541588,-0.089166678,0.283372157,-1.332806212,0.212510212
-0.933055878,-0.279594898,-0.226347685,0.013144851,0.00447762,-0.004376829,-0.135325357,0.21541588,-0.089166678,0.283372157,-1.332806212,0.212510212
-0.933055878,-0.279594898,-0.226347685,0.013144851,0.00447762,-0.004376829,-0.135325357,0.21541588,-0.089166678,0.283372157,-1.332806212,0.212510212
-0.933055878,-0.279594898,-0.226347685,0.013144851,0.00447762,-0.004376829,-0.135325357,0.21541588,-0.089166678,0.283372157,-1.332806212,0.212510212
-0.933055878,-0.279594898,-0.226347685,0.013144851,0.00447762,-0.004376829,-0.135325357,0.21541588,-0.089166678,0.283372157,-1.332806212,0.212510212
-0.933055878,-0.279594898,-0.226347685,0.013144851,0.00447762,-0.004376829,-0.135325357,0.21541588,-0.089166678,0.283372157,-1.332806212,0.212510212
-0.933055878,-0.279594898,-0.226347685,0.013144851,0.00447762,-0.004376829,-0.135325357,0.21541588,-0.089166678,0.283372157,-1.332806212,0.212510212
-0.933055878,-0.279594898,-0.226347685,0.013144851,0.00447762,-0.004376829,-0.135325357,0.21541588,-0.089166678,0.283372157,-1.332806212,0.212510212
-0.933055878,-0.279594898,-0.226347685,0.013144851,0.00447762,-0.004376829,-0.135325357,0.21541588,-0.089166678,0.283372157,-1.332806212,0.212510212
-0.933055878,-0.279594898,-0.226347685,0.013144851,0.00447762,-0.004376829,-0.135325357,0.21541588,-0.089166678,0.283372157,-1.332806212,0.212510212
-0.933055878,-0.279594898,-0.226347685,0.013144851,0.00447762,-0.004376829,-0.135325357,0.21541588,-0.089166678,0.283372157,-1.332806212,0.212510212
-0.933055878,-0.279594898,-0.226347685,0.013144851,0.00447762,-0.004376829,-0.135325357,0.21541588,-0.089166678,0.283372157,-1.332806212,0.212510212
-0.933055878,-0.279594898,-0.226347685,0.013144851,0.00447762,-0.004376829,-0.135325357,0.21541588,-0.089166678,0.283372157,-1.332806212,0.212510212
-0.933055878,-0.279594898,-0.226347685,0.013144851,0.00447762,-0.004376829,-0.135325357,0.21541588,-0.089166678,0.283372157,-1.332806212,0.212510212
-0.933055878,-0.279594898,-0.226347685,0.013144851,0.00447762,-0.004376829,-0.135325357,0.21541588,-0.089166678,0.283372157,-1.332806212,0.212510212
-0.933055878,-0.279594898,-0.226347685,0.013144851,0.00447762,-0.004376829,-0.135325357,0.21541588,-0.089166678,0.283372157,-1.332806212,0.212510212
-0.933055878,-0.279594898,-0.226347685,0.013144851,0.00447762,-0.004376829,-0.135325357,0.21541588,-0.089166678,0.283372157,-1.332806212,0.212510212
-0.933055878,-0.279594898,-0.226347685,0.013144851,0.00447762,-0.004376829,-0.135325357,0.21541588,-0.089166678,0.283372157,-1.332806212,0.212510212
-0.933055878,-0.279594898,-0.226347685,0.013144851,0.00447762,-0.004376829,-0.135325357,0.21541588,-0.089166678,0.283372157,-1.332806212,0.212510212
-0.933055878,-0.279594898,-0.226347685,0.013144851,0.00447762,-0.004376829,-0.135325357,0.21541588,-0.089166678,0.283372157,-1.332806212,0.212510212
-0.933055878,-0.279594898,-0.226347685,0.013144851,0.00447762,-0.004376829,-0.135325357,0.21541588,-0.089166678,0.283372157,-1.332806212,0.212510212
-0.933055878,-0.279594898,-0.226347685,0.013144851,0.00447762,-0.004376829,-0.135325357,0.21541588,-0.089166678,0.283372157,-1.332806212,0.212510212
-0.933055878,-0.279594898,-0.226347685,0.013144851,0.00447762,-0.004376829,-0.135325357,0.21541588,-0.089166678,0.283372157,-1.332806212,0.212510212
-0.930705726,-0.281084776,-0.234047562,-0.012886882,-0.068724245,-0.002429724,-0.150563538,0.193864584,-0.116418436,0.284924271,-1.324431586,0.206912718
-0.930705726,-0.281084776,-0.234047562,-0.012886882,-0.068724245,-0.002429724,-0.150563538,0.193864584,-0.116418436,0.284924271,-1.324431586,0.206912718
-0.930705726,-0.281084776,-0.234047562,-0.012886882,-0.068724245,-0.002429724,-0.150563538,0.193864584,-0.116418436,0.284924271,-1.324431586,0.206912718
-0.930705726,-0.281084776,-0.234047562,-0.012886882,-0.068724245,-0.002429724,-0.150563538,0.193864584,-0.116418436,0.284924271,-1.324431586,0.206912718
-0.930705726,-0.281084776,-0.234047562,-0.012886882,-0.068724245,-0.002429724,-0.150563538,0.193864584,-0.116418436,0.284924271,-1.324431586,0.206912718
-0.930705726,-0.281084776,-0.234047562,-0.012886882,-0.068724245,-0.002429724,-0.150563538,0.193864584,-0.116418436,0.284924271,-1.324431586,0.206912718
-0.930705726,-0.281084776,-0.234047562,-0.012886882,-0.068724245,-0.002429724,-0.150563538,0.193864584,-0.116418436,0.284924271,-1.324431586,0.206912718
-0.930705726,-0.281084776,-0.234047562,-0.012886882,-0.068724245,-0.002429724,-0.150563538,0.193864584,-0.116418436,0.284924271,-1.324431586,0.206912718
-0.930705726,-0.281084776,-0.234047562,-0.012886882,-0.068724245,-0.002429724,-0.150563538,0.193864584,-0.116418436,0.284924271,-1.324431586,0.206912718
-0.930705726,-0.281084776,-0.234047562,-0.012886882,-0.068724245,-0.002429724,-0.150563538,0.193864584,-0.116418436,0.284924271,-1.324431586,0.206912718
-0.930705726,-0.281084776,-0.234047562,-0.012886882,-0.068724245,-0.002429724,-0.150563538,0.193864584,-0.116418436,0.284924271,-1.324431586,0.206912718
-0.930705726,-0.281084776,-0.234047562,-0.012886882,-0.068724245,-0.002429724,-0.150563538,0.193864584,-0.116418436,0.284924271,-1.324431586,0.206912718
-0.930705726,-0.281084776,-0.234047562,-0.012886882,-0.068724245,-0.002429724,-0.150563538,0.193864584,-0.116418436,0.284924271,-1.324431586,0.206912718
-0.930705726,-0.281084776,-0.234047562,-0.012886882,-0.068724245,-0.002429724,-0.150563538,0.193864584,-0.116418436,0.284924271,-1.324431586,0.206912718
-0.930705726,-0.281084776,-0.234047562,-0.012886882,-0.068724245,-0.002429724,-0.150563538,0.193864584,-0.116418436,0.284924271,-1.324431586,0.206912718
-0.930705726,-0.281084776,-0.234047562,-0.012886882,-0.068724245,-0.002429724,-0.150563538,0.193864584,-0.116418436,0.284924271,-1.324431586,0.206912718
-0.9285236,-0.282951415,-0.240379691,0.038489759,-0.042382419,-0.012852013,-0.222240746,0.052965868,-0.06409201,0.286869887,-1.317474099,0.198358349
-0.9285236,-0.282951415,-0.240379691,0.038489759,-0.042382419,-0.012852013,-0.222240746,0.052965868,-0.06409201,0.286869887,-1.317474099,0.198358349
-0.9285236,-0.282951415,-0.240379691,0.038489759,-0.042382419,-0.012852013,-0.222240746,0.052965868,-0.06409201,0.286869887,-1.317474099,0.198358349
-0.9285236,-0.282951415,-0.240379691,0.038489759,-0.042382419,-0.012852013,-0.222240746,0.052965868,-0.06409201,0.286869887,-1.317474099,0.198358349
-0.9285236,-0.282951415,-0.240379691,0.038489759,-0.042382419,-0.012852013,-0.222240746,0.052965868,-0.06409201,0.286869887,-1.317474099,0.198358349
-0.9285236,-0.282951415,-0.240379691,0.038489759,-0.042382419,-0.012852013,-0.222240746,0.052965868,-0.06409201,0.286869887,-1.317474099,0.198358349
-0.9285236,-0.282951415,-0.240379691,0.038489759,-0.042382419,-0.012852013,-0.222240746,0.052965868,-0.06409201,0.286869887,-1.317474099,0.198358349
-0.9285236,-0.282951415,-0.240379691,0.038489759,-0.042382419,-0.012852013,-0.222240746,0.052965868,-0.06409201,0.286869887,-1.317474099,0.198358349
-0.9285236,-0.282951415,-0.240379691,0.038489759,-0.042382419,-0.012852013,-0.222240746,0.052965868,-0.06409201,0.286869887,-1.317474099,0.198358349
-0.9285236,-0.282951415,-0.240379691,0.038489759,-0.042382419,-0.012852013,-0.222240746,0.052965868,-0.06409201,0.286869887,-1.317474099,0.198358349
-0.9285236,-0.282951415,-0.240379691,0.038489759,-0.042382419,-0.012852013,-0.222240746,0.052965868,-0.06409201,0.286869887,-1.317474099,0.198358349
-0.9285236,-0.282951415,-0.240379691,0.038489759,-0.042382419,-0.012852013,-0.222240746,0.052965868,-0.06409201,0.286869887,-1.317474099,0.198358349
-0.9285236,-0.282951415,-0.240379691,0.038489759,-0.042382419,-0.012852013,-0.222240746,0.052965868,-0.06409201,0.286869887,-1.317474099,0.198358349
-0.9285236,-0.282951415,-0.240379691,0.038489759,-0.042382419,-0.012852013,-0.222240746,0.052965868,-0.06409201,0.286869887,-1.317474099,0.198358349
-0.9285236,-0.282951415,-0.240379691,0.038489759,-0.042382419,-0.012852013,-0.222240746,0.052965868,-0.06409201,0.286869887,-1.317474099,0.198358349
-0.9285236,-0.282951415,-0.240379691,0.038489759,-0.042382419,-0.012852013,-0.222240746,0.052965868,-0.06409201,0.286869887,-1.317474099,0.198358349
-0.9285236,-0.282951415,-0.240379691,0.038489759,-0.042382419,-0.012852013,-0.222240746,0.052965868,-0.06409201,0.286869887,-1.317474099,0.198358349
-0.9285236,-0.282951415,-0.240379691,0.038489759,-0.042382419,-0.012852013,-0.222240746,0.052965868,-0.06409201,0.286869887,-1.317474099,0.198358349
-0.928101659,-0.282668531,-0.242334187,0.057369828,0.014448225,0.009992003,-0.173224166,-0.017861821,0.013626968,0.286574968,-1.315391302,0.190512118
-0.928101659,-0.282668531,-0.242334187,0.057369828,0.014448225,0.009992003,-0.173224166,-0.017861821,0.013626968,0.286574968,-1.315391302,0.190512118
-0.928101659,-0.282668531,-0.242334187,0.057369828,0.014448225,0.009992003,-0.173224166,-0.017861821,0.013626968,0.286574968,-1.315391302,0.190512118
-0.928101659,-0.282668531,-0.242334187,0.057369828,0.014448225,0.009992003,-0.173224166,-0.017861821,0.013626968,0.286574968,-1.315391302,0.190512118
-0.928101659,-0.282668531,-0.242334187,0.057369828,0.014448225,0.009992003,-0.173224166,-0.017861821,0.013626968,0.286574968,-1.315391302,0.190512118
-0.928101659,-0.282668531,-0.242334187,0.057369828,0.014448225,0.009992003,-0.173224166,-0.017861821,0.013626968,0.286574968,-1.315391302,0.190512118
-0.928101659,-0.282668531,-0.242334187,0.057369828,0.014448225,0.009992003,-0.173224166,-0.017861821,0.013626968,0.286574968,-1.315391302,0.190512118
-0.928101659,-0.282668531,-0.242334187,0.057369828,0.014448225,0.009992003,-0.173224166,-0.017861821,0.013626968,0.286574968,-1.315391302,0.190512118
-0.928101659,-0.282668531,-0.242334187,0.057369828,0.014448225,0.009992003,-0.173224166,-0.017861821,0.013626968,0.286574968,-1.315391302,0.190512118
-0.928101659,-0.282668531,-0.242334187,0.057369828,0.014448225,0.009992003,-0.173224166,-0.017861821,0.013626968,0.286574968,-1.315391302,0.190512118
-0.928101659,-0.282668531,-0.242334187,0.057369828,0.014448225,0.009992003,-0.173224166,-0.017861821,0.013626968,0.286574968,-1.315391302,0.190512118
-0.928101659,-0.282668531,-0.242334187,0.057369828,0.014448225,0.009992003,-0.173224166,-0.017861821,0.013626968,0.286574968,-1.315391302,0.190512118
-0.926807225,-0.280748188,-0.249417216,0.010467231,-0.04440251,0.021896541,-0.499864906,0.056042179,0.028057626,0.284573562,-1.307910062,0.174922771
-0.926807225,-0.280748188,-0.249417216,0.010467231,-0.04440251,0.021896541,-0.499864906,0.056042179,0.028057626,0.284573562,-1.307910062,0.174922771
-0.926807225,-0.280748188,-0.249417216,0.010467231,-0.04440251,0.021896541,-0.499864906,0.056042179,0.028057626,0.284573562,-1.307910062,0.174922771
-0.926807225,-0.280748188,-0.249417216,0.010467231,-0.04440251,0.021896541,-0.499864906,0.056042179,0.028057626,0.284573562,-1.307910062,0.174922771
-0.926807225,-0.280748188,-0.249417216,0.010467231,-0.04440251,0.021896541,-0.499864906,0.056042179,0.028057626,0.284573562,-1.307910062,0.174922771
-0.926807225,-0.280748188,-0.249417216,0.010467231,-0.04440251,0.021896541,-0.499864906,0.056042179,0.028057626,0.284573562,-1.307910062,0.174922771
-0.926807225,-0.280748188,-0.249417216,0.010467231,-0.04440251,0.021896541,-0.499864906,0.056042179,0.028057626,0.284573562,-1.307910062,0.174922771
-0.926807225,-0.280748188,-0.249417216,0.010467231,-0.04440251,0.021896541,-0.499864906,0.056042179,0.028057626,0.284573562,-1.307910062,0.174922771
-0.926807225,-0.280748188,-0.249417216,0.010467231,-0.04440251,0.021896541,-0.499864906,0.056042179,0.028057626,0.284573562,-1.307910062,0.174922771
-0.926807225,-0.280748188,-0.249417216,0.010467231,-0.04440251,0.021896541,-0.499864906,0.056042179,0.028057626,0.284573562,-1.307910062,0.174922771
-0.926807225,-0.280748188,-0.249417216,0.010467231,-0.04440251,0.021896541,-0.499864906,0.056042179,0.028057626,0.284573562,-1.307910062,0.174922771
-0.926807225,-0.280748188,-0.249417216,0.010467231,-0.04440251,0.021896541,-0.499864906,0.056042179,0.028057626,0.284573562,-1.307910062,0.174922771
-0.926807225,-0.280748188,-0.249417216,0.010467231,-0.04440251,0.021896541,-0.499864906,0.056042179,0.028057626,0.284573562,-1.307910062,0.174922771
-0.926807225,-0.280748188,-0.249417216,0.010467231,-0.04440251,0.021896541,-0.499864906,0.056042179,0.028057626,0.284573562,-1.307910062,0.174922771
-0.926807225,-0.280748188,-0.249417216,0.010467231,-0.04440251,0.021896541,-0.499864906,0.056042179,0.028057626,0.284573562,-1.307910062,0.174922771
-0.927425802,-0.27659139,-0.251750976,0.000908554,-0.035253525,-0.022004128,-0.260635912,-0.087485082,0.013518844,0.280245306,-1.305732264,0.158384123
-0.927425802,-0.27659139,-0.251750976,0.000908554,-0.035253525,-0.022004128,-0.260635912,-0.087485082,0.013518844,0.280245306,-1.305732264,0.158384123
-0.927425802,-0.27659139,-0.251750976,0.000908554,-0.035253525,-0.022004128,-0.260635912,-0.087485082,0.013518844,0.280245306,-1.305732264,0.158384123
-0.927425802,-0.27659139,-0.251750976,0.000908554,-0.035253525,-0.022004128,-0.260635912,-0.087485082,0.013518844,0.280245306,-1.305732264,0.158384123
-0.927425802,-0.27659139,-0.251750976,0.000908554,-0.035253525,-0.022004128,-0.260635912,-0.087485082,0.013518844,0.280245306,-1.305732264,0.158384123
-0.927425802,-0.27659139,-0.251750976,0.000908554,-0.035253525,-0.022004128,-0.260635912,-0.087485082,0.013518844,0.280245306,-1.305732264,0.158384123
-0.927425802,-0.27659139,-0.251750976,0.000908554,-0.035253525,-0.022004128,-0.260635912,-0.087485082,0.013518844,0.280245306,-1.305732264,0.158384123
-0.927425802,-0.27659139,-0.251750976,0.000908554,-0.035253525,-0.022004128,-0.260635912,-0.087485082,0.013518844,0.280245306,-1.305732264,0.158384123
-0.927425802,-0.27659139,-0.251750976,0.000908554,-0.035253525,-0.022004128,-0.260635912,-0.087485082,0.013518844,0.280245306,-1.305732264,0.158384123
-0.927425802,-0.27659139,-0.251750976,0.000908554,-0.035253525,-0.022004128,-0.260635912,-0.087485082,0.013518844,0.280245306,-1.305732264,0.158384123
-0.927425802,-0.27659139,-0.251750976,0.000908554,-0.035253525,-0.022004128,-0.260635912,-0.087485082,0.013518844,0.280245306,-1.305732264,0.158384123
-0.927425802,-0.27659139,-0.251750976,0.000908554,-0.035253525,-0.022004128,-0.260635912,-0.087485082,0.013518844,0.280245306,-1.305732264,0.158384123
-0.927425802,-0.27659139,-0.251750976,0.000908554,-0.035253525,-0.022004128,-0.260635912,-0.087485082,0.013518844,0.280245306,-1.305732264,0.158384123
-0.927425802,-0.27659139,-0.251750976,0.000908554,-0.035253525,-0.022004128,-0.260635912,-0.087485082,0.013518844,0.280245306,-1.305732264,0.158384123
-0.927425802,-0.27659139,-0.251750976,0.000908554,-0.035253525,-0.022004128,-0.260635912,-0.087485082,0.013518844,0.280245306,-1.305732264,0.158384123
-0.927425802,-0.27659139,-0.251750976,0.000908554,-0.035253525,-0.022004128,-0.260635912,-0.087485082,0.013518844,0.280245306,-1.305732264,0.158384123
-0.927425802,-0.27659139,-0.251750976,0.000908554,-0.035253525,-0.022004128,-0.260635912,-0.087485082,0.013518844,0.280245306,-1.305732264,0.158384123
-0.927425802,-0.27659139,-0.251750976,0.000908554,-0.035253525,-0.022004128,-0.260635912,-0.087485082,0.013518844,0.280245306,-1.305732264,0.158384123
-0.928494453,-0.270723075,-0.25417918,0.026467741,-0.043319046,-0.008055687,-0.379858285,0.062631607,0.066984251,0.274144089,-1.303588784,0.145442164
-0.928494453,-0.270723075,-0.25417918,0.026467741,-0.043319046,-0.008055687,-0.379858285,0.062631607,0.066984251,0.274144089,-1.303588784,0.145442164
-0.928494453,-0.270723075,-0.25417918,0.026467741,-0.043319046,-0.008055687,-0.379858285,0.062631607,0.066984251,0.274144089,-1.303588784,0.145442164
-0.928494453,-0.270723075,-0.25417918,0.026467741,-0.043319046,-0.008055687,-0.379858285,0.062631607,0.066984251,0.274144089,-1.303588784,0.145442164
-0.928494453,-0.270723075,-0.25417918,0.026467741,-0.043319046,-0.008055687,-0.379858285,0.062631607,0.066984251,0.274144089,-1.303588784,0.145442164
-0.928494453,-0.270723075,-0.25417918,0.026467741,-0.043319046,-0.008055687,-0.379858285,0.062631607,0.066984251,0.274144089,-1.303588784,0.145442164
-0.928494453,-0.270723075,-0.25417918,0.026467741,-0.043319046,-0.008055687,-0.379858285,0.062631607,0.066984251,0.274144089,-1.303588784,0.145442164
-0.928494453,-0.270723075,-0.25417918,0.026467741,-0.043319046,-0.008055687,-0.379858285,0.062631607,0.066984251,0.274144089,-1.303588784,0.145442164
-0.928494453,-0.270723075,-0.25417918,0.026467741,-0.043319046,-0.008055687,-0.379858285,0.062631607,0.066984251,0.274144089,-1.303588784,0.145442164
-0.928494453,-0.270723075,-0.25417918,0.026467741,-0.043319046,-0.008055687,-0.379858285,0.062631607,0.066984251,0.274144089,-1.303588784,0.145442164
-0.928494453,-0.270723075,-0.25417918,0.026467741,-0.043319046,-0.008055687,-0.379858285,0.062631607,0.066984251,0.274144089,-1.303588784,0.145442164
-0.928494453,-0.270723075,-0.25417918,0.026467741,-0.043319046,-0.008055687,-0.379858285,0.062631607,0.066984251,0.274144089,-1.303588784,0.145442164
-0.928494453,-0.270723075,-0.25417918,0.026467741,-0.043319046,-0.008055687,-0.379858285,0.062631607,0.066984251,0.274144089,-1.303588784,0.145442164
-0.928494453,-0.270723075,-0.25417918,0.026467741,-0.043319046,-0.008055687,-0.379858285,0.062631607,0.066984251,0.274144089,-1.303588784,0.145442164
-0.928494453,-0.270723075,-0.25417918,0.026467741,-0.043319046,-0.008055687,-0.379858285,0.062631607,0.066984251,0.274144089,-1.303588784,0.145442164
-0.928494453,-0.270723075,-0.25417918,0.026467741,-0.043319046,-0.008055687,-0.379858285,0.062631607,0.066984251,0.274144089,-1.303588784,0.145442164
-0.928494453,-0.270723075,-0.25417918,0.026467741,-0.043319046,-0.008055687,-0.379858285,0.062631607,0.066984251,0.274144089,-1.303588784,0.145442164
-0.926101863,-0.269273669,-0.264247924,-0.026095927,-0.015929401,-0.01150614,-0.35616222,0.21979101,0.066110156,0.272638765,-1.292848712,0.134900876
-0.926101863,-0.269273669,-0.264247924,-0.026095927,-0.015929401,-0.01150614,-0.35616222,0.21979101,0.066110156,0.272638765,-1.292848712,0.134900876
-0.926101863,-0.269273669,-0.264247924,-0.026095927,-0.015929401,-0.01150614,-0.35616222,0.21979101,0.066110156,0.272638765,-1.292848712,0.134900876
-0.926101863,-0.269273669,-0.264247924,-0.026095927,-0.015929401,-0.01150614,-0.35616222,0.21979101,0.066110156,0.272638765,-1.292848712,0.134900876
-0.926101863,-0.269273669,-0.264247924,-0.026095927,-0.015929401,-0.01150614,-0.35616222,0.21979101,0.066110156,0.272638765,-1.292848712,0.134900876
-0.926101863,-0.269273669,-0.264247924,-0.026095927,-0.015929401,-0.01150614,-0.35616222,0.21979101,0.066110156,0.272638765,-1.292848712,0.134900876
-0.926101863,-0.269273669,-0.264247924,-0.026095927,-0.015929401,-0.01150614,-0.35616222,0.21979101,0.066110156,0.272638765,-1.292848712,0.134900876
-0.926101863,-0.269273669,-0.264247924,-0.026095927,-0.015929401,-0.01150614,-0.35616222,0.21979101,0.066110156,0.272638765,-1.292848712,0.134900876
-0.926101863,-0.269273669,-0.264247924,-0.026095927,-0.015929401,-0.01150614,-0.35616222,0.21979101,0.066110156,0.272638765,-1.292848712,0.134900876
-0.926101863,-0.269273669,-0.264247924,-0.026095927,-0.015929401,-0.01150614,-0.35616222,0.21979101,0.066110156,0.272638765,-1.292848712,0.134900876
-0.926101863,-0.269273669,-0.264247924,-0.026095927,-0.015929401,-0.01150614,-0.35616222,0.21979101,0.066110156,0.272638765,-1.292848712,0.134900876
-0.926101863,-0.269273669,-0.264247924,-0.026095927,-0.015929401,-0.01150614,-0.35616222,0.21979101,0.066110156,0.272638765,-1.292848712,0.134900876
-0.926101863,-0.269273669,-0.264247924,-0.026095927,-0.015929401,-0.01150614,-0.35616222,0.21979101,0.066110156,0.272638765,-1.292848712,0.134900876
-0.926101863,-0.269273669,-0.264247924,-0.026095927,-0.015929401,-0.01150614,-0.35616222,0.21979101,0.066110156,0.272638765,-1.292848712,0.134900876
-0.926101863,-0.269273669,-0.264247924,-0.026095927,-0.015929401,-0.01150614,-0.35616222,0.21979101,0.066110156,0.272638765,-1.292848712,0.134900876
-0.926101863,-0.269273669,-0.264247924,-0.026095927,-0.015929401,-0.01150614,-0.35616222,0.21979101,0.066110156,0.272638765,-1.292848712,0.134900876
-0.926101863,-0.269273669,-0.264247924,-0.026095927,-0.015929401,-0.01150614,-0.35616222,0.21979101,0.066110156,0.272638765,-1.292848712,0.134900876
-0.926101863,-0.269273669,-0.264247924,-0.026095927,-0.015929401,-0.01150614,-0.35616222,0.21979101,0.066110156,0.272638765,-1.292848712,0.134900876
-0.926101863,-0.269273669,-0.264247924,-0.026095927,-0.015929401,-0.01150614,-0.35616222,0.21979101,0.066110156,0.272638765,-1.292848712,0.134900876
-0.926101863,-0.269273669,-0.264247924,-0.026095927,-0.015929401,-0.01150614,-0.35616222,0.21979101,0.066110156,0.272638765,-1.292848712,0.134900876
-0.926101863,-0.269273669,-0.264247924,-0.026095927,-0.015929401,-0.01150614,-0.35616222,0.21979101,0.066110156,0.272638765,-1.292848712,0.134900876
-0.926101863,-0.269273669,-0.264247924,-0.026095927,-0.015929401,-0.01150614,-0.35616222,0.21979101,0.066110156,0.272638765,-1.292848712,0.134900876
-0.925493956,-0.26344642,-0.272133917,0.022353172,0.06532529,0.00283432,-0.306590617,0.029150285,0.063800924,0.266593097,-1.284814675,0.119731436
-0.925493956,-0.26344642,-0.272133917,0.022353172,0.06532529,0.00283432,-0.306590617,0.029150285,0.063800924,0.266593097,-1.284814675,0.119731436
-0.925493956,-0.26344642,-0.272133917,0.022353172,0.06532529,0.00283432,-0.306590617,0.029150285,0.063800924,0.266593097,-1.284814675,0.119731436
-0.925493956,-0.26344642,-0.272133917,0.022353172,0.06532529,0.00283432,-0.306590617,0.029150285,0.063800924,0.266593097,-1.284814675,0.119731436
-0.925493956,-0.26344642,-0.272133917,0.022353172,0.06532529,0.00283432,-0.306590617,0.029150285,0.063800924,0.266593097,-1.284814675,0.119731436
-0.925493956,-0.26344642,-0.272133917,0.022353172,0.06532529,0.00283432,-0.306590617,0.029150285,0.063800924,0.266593097,-1.284814675,0.119731436
-0.925493956,-0.26344642,-0.272133917,0.022353172,0.06532529,0.00283432,-0.306590617,0.029150285,0.063800924,0.266593097,-1.284814675,0.119731436
-0.925493956,-0.26344642,-0.272133917,0.022353172,0.06532529,0.00283432,-0.306590617,0.029150285,0.063800924,0.266593097,-1.284814675,0.119731436
-0.92735815,-0.256531656,-0.272393614,0.00515902,-0.002563626,0.005993307,-0.270210296,-0.061933916,0.047278725,0.259432047,-1.285101004,0.110754885
-0.92735815,-0.256531656,-0.272393614,0.00515902,-0.002563626,0.005993307,-0.270210296,-0.061933916,0.047278725,0.259432047,-1.285101004,0.110754885
-0.92735815,-0.256531656,-0.272393614,0.00515902,-0.002563626,0.005993307,-0.270210296,-0.061933916,0.047278725,0.259432047,-1.285101004,0.110754885
-0.92735815,-0.256531656,-0.272393614,0.00515902,-0.002563626,0.005993307,-0.270210296,-0.061933916,0.047278725,0.259432047,-1.285101004,0.110754885