gravityX,gravityY,gravityZ,accelX,accelY,accelZ,rotRateX,rotRatY,rotRateZ,attPitch,attRoll,attYaw
-0.93554765,-0.262469321,-0.23634854,-0.00660634,-0.024044961,-0.003687382,0.112738252,0.050479323,0.036834657,0.26558037,-1.323342766,0.207309055
-0.93554765,-0.262469321,-0.23634854,-0.00660634,-0.024044961,-0.003687382,0.112738252,0.050479323,0.036834657,0.26558037,-1.323342766,0.207309055
-0.93554765,-0.262469321,-0.23634854,-0.00660634,-0.024044961,-0.003687382,0.112738252,0.050479323,0.036834657,0.26558037,-1.323342766,0.207309055
-0.93554765,-0.262469321,-0.23634854,-0.00660634,-0.024044961,-0.003687382,0.112738252,0.050479323,0.036834657,0.26558037,-1.323342766,0.207309055
-0.93554765,-0.262469321,-0.23634854,-0.00660634,-0.024044961,-0.003687382,0.112738252,0.050479323,0.036834657,0.26558037,-1.323342766,0.207309055
-0.93554765,-0.262469321,-0.23634854,-0.00660634,-0.024044961,-0.003687382,0.112738252,0.050479323,0.036834657,0.26558037,-1.323342766,0.207309055
-0.935432255,-0.259001583,-0.240592971,-0.015663385,-0.048081547,0.007209837,-0.2951276,0.082621217,0.065042861,0.261988377,-1.319052953,0.200909038
-0.935432255,-0.259001583,-0.240592971,-0.015663385,-0.048081547,0.007209837,-0.2951276,0.082621217,0.065042861,0.261988377,-1.319052953,0.200909038
-0.935432255,-0.259001583,-0.240592971,-0.015663385,-0.048081547,0.007209837,-0.2951276,0.082621217,0.065042861,0.261988377,-1.319052953,0.200909038
-0.935432255,-0.259001583,-0.240592971,-0.015663385,-0.048081547,0.007209837,-0.2951276,0.082621217,0.065042861,0.261988377,-1.319052953,0.200909038
-0.935432255,-0.259001583,-0.240592971,-0.015663385,-0.048081547,0.007209837,-0.2951276,0.082621217,0.065042861,0.261988377,-1.319052953,0.200909038
-0.935432255,-0.259001583,-0.240592971,-0.015663385,-0.048081547,0.007209837,-0.2951276,0.082621217,0.065042861,0.261988377,-1.319052953,0.200909038
-0.935432255,-0.259001583,-0.240592971,-0.015663385,-0.048081547,0.007209837,-0.2951276,0.082621217,0.065042861,0.261988377,-1.319052953,0.200909038
-0.935432255,-0.259001583,-0.240592971,-0.015663385,-0.048081547,0.007209837,-0.2951276,0.082621217,0.065042861,0.261988377,-1.319052953,0.200909038
-0.935432255,-0.259001583,-0.240592971,-0.015663385,-0.048081547,0.007209837,-0.2951276,0.082621217,0.065042861,0.261988377,-1.319052953,0.200909038
-0.935432255,-0.259001583,-0.240592971,-0.015663385,-0.048081547,0.007209837,-0.2951276,0.082621217,0.065042861,0.261988377,-1.319052953,0.200909038
-0.935432255,-0.259001583,-0.240592971,-0.015663385,-0.048081547,0.007209837,-0.2951276,0.082621217,0.065042861,0.261988377,-1.319052953,0.200909038
-0.935432255,-0.259001583,-0.240592971,-0.015663385,-0.048081547,0.007209837,-0.2951276,0.082621217,0.065042861,0.261988377,-1.319052953,0.200909038
-0.935432255,-0.259001583,-0.240592971,-0.015663385,-0.048081547,0.007209837,-0.2951276,0.082621217,0.065042861,0.261988377,-1.319052953,0.200909038
-0.935432255,-0.259001583,-0.240592971,-0.015663385,-0.048081547,0.007209837,-0.2951276,0.082621217,0.065042861,0.261988377,-1.319052953,0.200909038
-0.935432255,-0.259001583,-0.240592971,-0.015663385,-0.048081547,0.007209837,-0.2951276,0.082621217,0.065042861,0.261988377,-1.319052953,0.200909038
-0.935432255,-0.259001583,-0.240592971,-0.015663385,-0.048081547,0.007209837,-0.2951276,0.082621217,0.065042861,0.261988377,-1.319052953,0.200909038
-0.935432255,-0.259001583,-0.240592971,-0.015663385,-0.048081547,0.007209837,-0.2951276,0.082621217,0.065042861,0.261988377,-1.319052953,0.200909038
-0.935432255,-0.259001583,-0.240592971,-0.015663385,-0.048081547,0.007209837,-0.2951276,0.082621217,0.065042861,0.261988377,-1.319052953,0.200909038
-0.935595691,-0.254999816,-0.244204715,0.01272881,-0.004597962,0.01764226,0.019101905,0.033474166,0.063408479,0.25784751,-1.315477574,0.196784515
-0.935595691,-0.254999816,-0.244204715,0.01272881,-0.004597962,0.01764226,0.019101905,0.033474166,0.063408479,0.25784751,-1.315477574,0.196784515
-0.935595691,-0.254999816,-0.244204715,0.01272881,-0.004597962,0.01764226,0.019101905,0.033474166,0.063408479,0.25784751,-1.315477574,0.196784515
-0.935595691,-0.254999816,-0.244204715,0.01272881,-0.004597962,0.01764226,0.019101905,0.033474166,0.063408479,0.25784751,-1.315477574,0.196784515
-0.935595691,-0.254999816,-0.244204715,0.01272881,-0.004597962,0.01764226,0.019101905,0.033474166,0.063408479,0.25784751,-1.315477574,0.196784515
-0.935595691,-0.254999816,-0.244204715,0.01272881,-0.004597962,0.01764226,0.019101905,0.033474166,0.063408479,0.25784751,-1.315477574,0.196784515
-0.935595691,-0.254999816,-0.244204715,0.01272881,-0.004597962,0.01764226,0.019101905,0.033474166,0.063408479,0.25784751,-1.315477574,0.196784515
-0.935595691,-0.254999816,-0.244204715,0.01272881,-0.004597962,0.01764226,0.019101905,0.033474166,0.063408479,0.25784751,-1.315477574,0.196784515
-0.935595691,-0.254999816,-0.244204715,0.01272881,-0.004597962,0.01764226,0.019101905,0.033474166,0.063408479,0.25784751,-1.315477574,0.196784515
-0.935595691,-0.254999816,-0.244204715,0.01272881,-0.004597962,0.01764226,0.019101905,0.033474166,0.063408479,0.25784751,-1.315477574,0.196784515
-0.935595691,-0.254999816,-0.244204715,0.01272881,-0.004597962,0.01764226,0.019101905,0.033474166,0.063408479,0.25784751,-1.315477574,0.196784515
-0.935595691,-0.254999816,-0.244204715,0.01272881,-0.004597962,0.01764226,0.019101905,0.033474166,0.063408479,0.25784751,-1.315477574,0.196784515
-0.935595691,-0.254999816,-0.244204715,0.01272881,-0.004597962,0.01764226,0.019101905,0.033474166,0.063408479,0.25784751,-1.315477574,0.196784515
-0.935595691,-0.254999816,-0.244204715,0.01272881,-0.004597962,0.01764226,0.019101905,0.033474166,0.063408479,0.25784751,-1.315477574,0.196784515
-0.935595691,-0.254999816,-0.244204715,0.01272881,-0.004597962,0.01764226,0.019101905,0.033474166,0.063408479,0.25784751,-1.315477574,0.196784515
-0.935595691,-0.254999816,-0.244204715,0.01272881,-0.004597962,0.01764226,0.019101905,0.033474166,0.063408479,0.25784751,-1.315477574,0.196784515
-0.935595691,-0.254999816,-0.244204715,0.01272881,-0.004597962,0.01764226,0.019101905,0.033474166,0.063408479,0.25784751,-1.315477574,0.196784515
-0.935595691,-0.254999816,-0.244204715,0.01272881,-0.004597962,0.01764226,0.019101905,0.033474166,0.063408479,0.25784751,-1.315477574,0.196784515
-0.936049879,-0.252419889,-0.245142952,0.034789443,-0.044043124,0.02747637,-0.389290422,-0.004722753,0.035791393,0.255180322,-1.314657914,0.193251042
-0.936049879,-0.252419889,-0.245142952,0.034789443,-0.044043124,0.02747637,-0.389290422,-0.004722753,0.035791393,0.255180322,-1.314657914,0.193251042
-0.936049879,-0.252419889,-0.245142952,0.034789443,-0.044043124,0.02747637,-0.389290422,-0.004722753,0.035791393,0.255180322,-1.314657914,0.193251042
-0.936049879,-0.252419889,-0.245142952,0.034789443,-0.044043124,0.02747637,-0.389290422,-0.004722753,0.035791393,0.255180322,-1.314657914,0.193251042
-0.936049879,-0.252419889,-0.245142952,0.034789443,-0.044043124,0.02747637,-0.389290422,-0.004722753,0.035791393,0.255180322,-1.314657914,0.193251042
-0.936049879,-0.252419889,-0.245142952,0.034789443,-0.044043124,0.02747637,-0.389290422,-0.004722753,0.035791393,0.255180322,-1.314657914,0.193251042
-0.936049879,-0.252419889,-0.245142952,0.034789443,-0.044043124,0.02747637,-0.389290422,-0.004722753,0.035791393,0.255180322,-1.314657914,0.193251042
-0.936049879,-0.252419889,-0.245142952,0.034789443,-0.044043124,0.02747637,-0.389290422,-0.004722753,0.035791393,0.255180322,-1.314657914,0.193251042
-0.936049879,-0.252419889,-0.245142952,0.034789443,-0.044043124,0.02747637,-0.389290422,-0.004722753,0.035791393,0.255180322,-1.314657914,0.193251042
-0.936049879,-0.252419889,-0.245142952,0.034789443,-0.044043124,0.02747637,-0.389290422,-0.004722753,0.035791393,0.255180322,-1.314657914,0.193251042
-0.936049879,-0.252419889,-0.245142952,0.034789443,-0.044043124,0.02747637,-0.389290422,-0.004722753,0.035791393,0.255180322,-1.314657914,0.193251042
-0.936049879,-0.252419889,-0.245142952,0.034789443,-0.044043124,0.02747637,-0.389290422,-0.004722753,0.035791393,0.255180322,-1.314657914,0.193251042
-0.936049879,-0.252419889,-0.245142952,0.034789443,-0.044043124,0.02747637,-0.389290422,-0.004722753,0.035791393,0.255180322,-1.314657914,0.193251042
-0.936049879,-0.252419889,-0.245142952,0.034789443,-0.044043124,0.02747637,-0.389290422,-0.004722753,0.035791393,0.255180322,-1.314657914,0.193251042
-0.936049879,-0.252419889,-0.245142952,0.034789443,-0.044043124,0.02747637,-0.389290422,-0.004722753,0.035791393,0.255180322,-1.314657914,0.193251042
-0.936049879,-0.252419889,-0.245142952,0.034789443,-0.044043124,0.02747637,-0.389290422,-0.004722753,0.035791393,0.255180322,-1.314657914,0.193251042
-0.936049879,-0.252419889,-0.245142952,0.034789443,-0.044043124,0.02747637,-0.389290422,-0.004722753,0.035791393,0.255180322,-1.314657914,0.193251042
-0.936049879,-0.252419889,-0.245142952,0.034789443,-0.044043124,0.02747637,-0.389290422,-0.004722753,0.035791393,0.255180322,-1.314657914,0.193251042
-0.936049879,-0.252419889,-0.245142952,0.034789443,-0.044043124,0.02747637,-0.389290422,-0.004722753,0.035791393,0.255180322,-1.314657914,0.193251042
-0.936049879,-0.252419889,-0.245142952,0.034789443,-0.044043124,0.02747637,-0.389290422,-0.004722753,0.035791393,0.255180322,-1.314657914,0.193251042
-0.936049879,-0.252419889,-0.245142952,0.034789443,-0.044043124,0.02747637,-0.389290422,-0.004722753,0.035791393,0.255180322,-1.314657914,0.193251042
-0.936049879,-0.252419889,-0.245142952,0.034789443,-0.044043124,0.02747637,-0.389290422,-0.004722753,0.035791393,0.255180322,-1.314657914,0.193251042
-0.936049879,-0.252419889,-0.245142952,0.034789443,-0.044043124,0.02747637,-0.389290422,-0.004722753,0.035791393,0.255180322,-1.314657914,0.193251042
-0.936049879,-0.252419889,-0.245142952,0.034789443,-0.044043124,0.02747637,-0.389290422,-0.004722753,0.035791393,0.255180322,-1.314657914,0.193251042
-0.935975969,-0.245655715,-0.25219509,0.004487872,-0.034236252,0.031827688,-0.540766537,0.039206874,0.028177949,0.248196079,-1.307600831,0.170904059
-0.935975969,-0.245655715,-0.25219509,0.004487872,-0.034236252,0.031827688,-0.540766537,0.039206874,0.028177949,0.248196079,-1.307600831,0.170904059
-0.935975969,-0.245655715,-0.25219509,0.004487872,-0.034236252,0.031827688,-0.540766537,0.039206874,0.028177949,0.248196079,-1.307600831,0.170904059
-0.935975969,-0.245655715,-0.25219509,0.004487872,-0.034236252,0.031827688,-0.540766537,0.039206874,0.028177949,0.248196079,-1.307600831,0.170904059
-0.935975969,-0.245655715,-0.25219509,0.004487872,-0.034236252,0.031827688,-0.540766537,0.039206874,0.028177949,0.248196079,-1.307600831,0.170904059
-0.935975969,-0.245655715,-0.25219509,0.004487872,-0.034236252,0.031827688,-0.540766537,0.039206874,0.028177949,0.248196079,-1.307600831,0.170904059
-0.935975969,-0.245655715,-0.25219509,0.004487872,-0.034236252,0.031827688,-0.540766537,0.039206874,0.028177949,0.248196079,-1.307600831,0.170904059
-0.935975969,-0.245655715,-0.25219509,0.004487872,-0.034236252,0.031827688,-0.540766537,0.039206874,0.028177949,0.248196079,-1.307600831,0.170904059
-0.935975969,-0.245655715,-0.25219509,0.004487872,-0.034236252,0.031827688,-0.540766537,0.039206874,0.028177949,0.248196079,-1.307600831,0.170904059
-0.935975969,-0.245655715,-0.25219509,0.004487872,-0.034236252,0.031827688,-0.540766537,0.039206874,0.028177949,0.248196079,-1.307600831,0.170904059
-0.935975969,-0.245655715,-0.25219509,0.004487872,-0.034236252,0.031827688,-0.540766537,0.039206874,0.028177949,0.248196079,-1.307600831,0.170904059
-0.935975969,-0.245655715,-0.25219509,0.004487872,-0.034236252,0.031827688,-0.540766537,0.039206874,0.028177949,0.248196079,-1.307600831,0.170904059
-0.935975969,-0.245655715,-0.25219509,0.004487872,-0.034236252,0.031827688,-0.540766537,0.039206874,0.028177949,0.248196079,-1.307600831,0.170904059
-0.935975969,-0.245655715,-0.25219509,0.004487872,-0.034236252,0.031827688,-0.540766537,0.039206874,0.028177949,0.248196079,-1.307600831,0.170904059
-0.935975969,-0.245655715,-0.25219509,0.004487872,-0.034236252,0.031827688,-0.540766537,0.039206874,0.028177949,0.248196079,-1.307600831,0.170904059
-0.935975969,-0.245655715,-0.25219509,0.004487872,-0.034236252,0.031827688,-0.540766537,0.039206874,0.028177949,0.248196079,-1.307600831,0.170904059
-0.935975969,-0.245655715,-0.25219509,0.004487872,-0.034236252,0.031827688,-0.540766537,0.039206874,0.028177949,0.248196079,-1.307600831,0.170904059
-0.935975969,-0.245655715,-0.25219509,0.004487872,-0.034236252,0.031827688,-0.540766537,0.039206874,0.028177949,0.248196079,-1.307600831,0.170904059
-0.935975969,-0.245655715,-0.25219509,0.004487872,-0.034236252,0.031827688,-0.540766537,0.039206874,0.028177949,0.248196079,-1.307600831,0.170904059
-0.935975969,-0.245655715,-0.25219509,0.004487872,-0.034236252,0.031827688,-0.540766537,0.039206874,0.028177949,0.248196079,-1.307600831,0.170904059
-0.935975969,-0.245655715,-0.25219509,0.004487872,-0.034236252,0.031827688,-0.540766537,0.039206874,0.028177949,0.248196079,-1.307600831,0.170904059
-0.935975969,-0.245655715,-0.25219509,0.004487872,-0.034236252,0.031827688,-0.540766537,0.039206874,0.028177949,0.248196079,-1.307600831,0.170904059
-0.935975969,-0.245655715,-0.25219509,0.004487872,-0.034236252,0.031827688,-0.540766537,0.039206874,0.028177949,0.248196079,-1.307600831,0.170904059
-0.935975969,-0.245655715,-0.25219509,0.004487872,-0.034236252,0.031827688,-0.540766537,0.039206874,0.028177949,0.248196079,-1.307600831,0.170904059
-0.933398128,-0.271195114,-0.234992415,-0.003918827,0.005600631,0.005530775,-0.190385565,-0.0356053,0.03625505,0.27463447,-1.324161773,0.16196847
-0.933398128,-0.271195114,-0.234992415,-0.003918827,0.005600631,0.005530775,-0.190385565,-0.0356053,0.03625505,0.27463447,-1.324161773,0.16196847
-0.933398128,-0.271195114,-0.234992415,-0.003918827,0.005600631,0.005530775,-0.190385565,-0.0356053,0.03625505,0.27463447,-1.324161773,0.16196847
-0.933398128,-0.271195114,-0.234992415,-0.003918827,0.005600631,0.005530775,-0.190385565,-0.0356053,0.03625505,0.27463447,-1.324161773,0.16196847
-0.933398128,-0.271195114,-0.234992415,-0.003918827,0.005600631,0.005530775,-0.190385565,-0.0356053,0.03625505,0.27463447,-1.324161773,0.16196847
-0.933398128,-0.271195114,-0.234992415,-0.003918827,0.005600631,0.005530775,-0.190385565,-0.0356053,0.03625505,0.27463447,-1.324161773,0.16196847
-0.933398128,-0.271195114,-0.234992415,-0.003918827,0.005600631,0.005530775,-0.190385565,-0.0356053,0.03625505,0.27463447,-1.324161773,0.16196847
-0.933398128,-0.271195114,-0.234992415,-0.003918827,0.005600631,0.005530775,-0.190385565,-0.0356053,0.03625505,0.27463447,-1.324161773,0.16196847
-0.933398128,-0.271195114,-0.234992415,-0.003918827,0.005600631,0.005530775,-0.190385565,-0.0356053,0.03625505,0.27463447,-1.324161773,0.16196847
-0.933398128,-0.271195114,-0.234992415,-0.003918827,0.005600631,0.005530775,-0.190385565,-0.0356053,0.03625505,0.27463447,-1.324161773,0.16196847
-0.933398128,-0.271195114,-0.234992415,-0.003918827,0.005600631,0.005530775,-0.190385565,-0.0356053,0.03625505,0.27463447,-1.324161773,0.16196847
-0.933398128,-0.271195114,-0.234992415,-0.003918827,0.005600631,0.005530775,-0.190385565,-0.0356053,0.03625505,0.27463447,-1.324161773,0.16196847
-0.933398128,-0.271195114,-0.234992415,-0.003918827,0.005600631,0.005530775,-0.190385565,-0.0356053,0.03625505,0.27463447,-1.324161773,0.16196847
-0.933398128,-0.271195114,-0.234992415,-0.003918827,0.005600631,0.005530775,-0.190385565,-0.0356053,0.03625505,0.27463447,-1.324161773,0.16196847
-0.933398128,-0.271195114,-0.234992415,-0.003918827,0.005600631,0.005530775,-0.190385565,-0.0356053,0.03625505,0.27463447,-1.324161773,0.16196847
-0.933398128,-0.271195114,-0.234992415,-0.003918827,0.005600631,0.005530775,-0.190385565,-0.0356053,0.03625505,0.27463447,-1.324161773,0.16196847
-0.933398128,-0.271195114,-0.234992415,-0.003918827,0.005600631,0.005530775,-0.190385565,-0.0356053,0.03625505,0.27463447,-1.324161773,0.16196847
-0.933398128,-0.271195114,-0.234992415,-0.003918827,0.005600631,0.005530775,-0.190385565,-0.0356053,0.03625505,0.27463447,-1.324161773,0.16196847
-0.933398128,-0.271195114,-0.234992415,-0.003918827,0.005600631,0.005530775,-0.190385565,-0.0356053,0.03625505,0.27463447,-1.324161773,0.16196847
-0.933398128,-0.271195114,-0.234992415,-0.003918827,0.005600631,0.005530775,-0.190385565,-0.0356053,0.03625505,0.27463447,-1.324161773,0.16196847
-0.933398128,-0.271195114,-0.234992415,-0.003918827,0.005600631,0.005530775,-0.190385565,-0.0356053,0.03625505,0.27463447,-1.324161773,0.16196847
-0.933398128,-0.271195114,-0.234992415,-0.003918827,0.005600631,0.005530775,-0.190385565,-0.0356053,0.03625505,0.27463447,-1.324161773,0.16196847
-0.933398128,-0.271195114,-0.234992415,-0.003918827,0.005600631,0.005530775,-0.190385565,-0.0356053,0.03625505,0.27463447,-1.324161773,0.16196847
-0.931401551,-0.28624171,-0.224848926,-0.022913694,0.013155133,0.001841784,-0.21664454,-0.032928281,0.055313163,0.290302099,-1.333919296,0.158185913
-0.931401551,-0.28624171,-0.224848926,-0.022913694,0.013155133,0.001841784,-0.21664454,-0.032928281,0.055313163,0.290302099,-1.333919296,0.158185913
-0.931401551,-0.28624171,-0.224848926,-0.022913694,0.013155133,0.001841784,-0.21664454,-0.032928281,0.055313163,0.290302099,-1.333919296,0.158185913
-0.931401551,-0.28624171,-0.224848926,-0.022913694,0.013155133,0.001841784,-0.21664454,-0.032928281,0.055313163,0.290302099,-1.333919296,0.158185913
-0.931401551,-0.28624171,-0.224848926,-0.022913694,0.013155133,0.001841784,-0.21664454,-0.032928281,0.055313163,0.290302099,-1.333919296,0.158185913
-0.931401551,-0.28624171,-0.224848926,-0.022913694,0.013155133,0.001841784,-0.21664454,-0.032928281,0.055313163,0.290302099,-1.333919296,0.158185913
-0.931401551,-0.28624171,-0.224848926,-0.022913694,0.013155133,0.001841784,-0.21664454,-0.032928281,0.055313163,0.290302099,-1.333919296,0.158185913
-0.931401551,-0.28624171,-0.224848926,-0.022913694,0.013155133,0.001841784,-0.21664454,-0.032928281,0.055313163,0.290302099,-1.333919296,0.158185913
-0.931401551,-0.28624171,-0.224848926,-0.022913694,0.013155133,0.001841784,-0.21664454,-0.032928281,0.055313163,0.290302099,-1.333919296,0.158185913
-0.931401551,-0.28624171,-0.224848926,-0.022913694,0.013155133,0.001841784,-0.21664454,-0.032928281,0.055313163,0.290302099,-1.333919296,0.158185913
-0.931401551,-0.28624171,-0.224848926,-0.022913694,0.013155133,0.001841784,-0.21664454,-0.032928281,0.055313163,0.290302099,-1.333919296,0.158185913
-0.931401551,-0.28624171,-0.224848926,-0.022913694,0.013155133,0.001841784,-0.21664454,-0.032928281,0.055313163,0.290302099,-1.333919296,0.158185913
-0.931401551,-0.28624171,-0.224848926,-0.022913694,0.013155133,0.001841784,-0.21664454,-0.032928281,0.055313163,0.290302099,-1.333919296,0.158185913
-0.931401551,-0.28624171,-0.224848926,-0.022913694,0.013155133,0.001841784,-0.21664454,-0.032928281,0.055313163,0.290302099,-1.333919296,0.158185913
-0.931401551,-0.28624171,-0.224848926,-0.022913694,0.013155133,0.001841784,-0.21664454,-0.032928281,0.055313163,0.290302099,-1.333919296,0.158185913
-0.93372339,-0.275040418,-0.22915788,-0.012825131,0.02627638,0.023240566,-0.056907482,-0.014321198,0.120769352,0.278631736,-1.330129353,0.151769603
-0.93372339,-0.275040418,-0.22915788,-0.012825131,0.02627638,0.023240566,-0.056907482,-0.014321198,0.120769352,0.278631736,-1.330129353,0.151769603
-0.93372339,-0.275040418,-0.22915788,-0.012825131,0.02627638,0.023240566,-0.056907482,-0.014321198,0.120769352,0.278631736,-1.330129353,0.151769603
-0.93372339,-0.275040418,-0.22915788,-0.012825131,0.02627638,0.023240566,-0.056907482,-0.014321198,0.120769352,0.278631736,-1.330129353,0.151769603
-0.93372339,-0.275040418,-0.22915788,-0.012825131,0.02627638,0.023240566,-0.056907482,-0.014321198,0.120769352,0.278631736,-1.330129353,0.151769603
-0.93372339,-0.275040418,-0.22915788,-0.012825131,0.02627638,0.023240566,-0.056907482,-0.014321198,0.120769352,0.278631736,-1.330129353,0.151769603
-0.93372339,-0.275040418,-0.22915788,-0.012825131,0.02627638,0.023240566,-0.056907482,-0.014321198,0.120769352,0.278631736,-1.330129353,0.151769603
-0.93372339,-0.275040418,-0.22915788,-0.012825131,0.02627638,0.023240566,-0.056907482,-0.014321198,0.120769352,0.278631736,-1.330129353,0.151769603
-0.93372339,-0.275040418,-0.22915788,-0.012825131,0.02627638,0.023240566,-0.056907482,-0.014321198,0.120769352,0.278631736,-1.330129353,0.151769603
-0.93372339,-0.275040418,-0.22915788,-0.012825131,0.02627638,0.023240566,-0.056907482,-0.014321198,0.120769352,0.278631736,-1.330129353,0.151769603
-0.93372339,-0.275040418,-0.22915788,-0.012825131,0.02627638,0.023240566,-0.056907482,-0.014321198,0.120769352,0.278631736,-1.330129353,0.151769603
-0.93372339,-0.275040418,-0.22915788,-0.012825131,0.02627638,0.023240566,-0.056907482,-0.014321198,0.120769352,0.278631736,-1.330129353,0.151769603
-0.93372339,-0.275040418,-0.22915788,-0.012825131,0.02627638,0.023240566,-0.056907482,-0.014321198,0.120769352,0.278631736,-1.330129353,0.151769603
-0.93372339,-0.275040418,-0.22915788,-0.012825131,0.02627638,0.023240566,-0.056907482,-0.014321198,0.120769352,0.278631736,-1.330129353,0.151769603
-0.93372339,-0.275040418,-0.22915788,-0.012825131,0.02627638,0.023240566,-0.056907482,-0.014321198,0.120769352,0.278631736,-1.330129353,0.151769603
-0.93372339,-0.275040418,-0.22915788,-0.012825131,0.02627638,0.023240566,-0.056907482,-0.014321198,0.120769352,0.278631736,-1.330129353,0.151769603
-0.93372339,-0.275040418,-0.22915788,-0.012825131,0.02627638,0.023240566,-0.056907482,-0.014321198,0.120769352,0.278631736,-1.330129353,0.151769603
-0.93372339,-0.275040418,-0.22915788,-0.012825131,0.02627638,0.023240566,-0.056907482,-0.014321198,0.120769352,0.278631736,-1.330129353,0.151769603
-0.93372339,-0.275040418,-0.22915788,-0.012825131,0.02627638,0.023240566,-0.056907482,-0.014321198,0.120769352,0.278631736,-1.330129353,0.151769603
-0.93372339,-0.275040418,-0.22915788,-0.012825131,0.02627638,0.023240566,-0.056907482,-0.014321198,0.120769352,0.278631736,-1.330129353,0.151769603
-0.93372339,-0.275040418,-0.22915788,-0.012825131,0.02627638,0.023240566,-0.056907482,-0.014321198,0.120769352,0.278631736,-1.330129353,0.151769603
-0.936642289,-0.267434746,-0.226229861,0.007793248,0.020593107,0.032428622,0.029895499,-0.077663481,0.084137991,0.270729827,-1.333802507,0.154262439
-0.936642289,-0.267434746,-0.226229861,0.007793248,0.020593107,0.032428622,0.029895499,-0.077663481,0.084137991,0.270729827,-1.333802507,0.154262439
-0.936642289,-0.267434746,-0.226229861,0.007793248,0.020593107,0.032428622,0.029895499,-0.077663481,0.084137991,0.270729827,-1.333802507,0.154262439
-0.936642289,-0.267434746,-0.226229861,0.007793248,0.020593107,0.032428622,0.029895499,-0.077663481,0.084137991,0.270729827,-1.333802507,0.154262439
-0.936642289,-0.267434746,-0.226229861,0.007793248,0.020593107,0.032428622,0.029895499,-0.077663481,0.084137991,0.270729827,-1.333802507,0.154262439
-0.936642289,-0.267434746,-0.226229861,0.007793248,0.020593107,0.032428622,0.029895499,-0.077663481,0.084137991,0.270729827,-1.333802507,0.154262439
-0.936642289,-0.267434746,-0.226229861,0.007793248,0.020593107,0.032428622,0.029895499,-0.077663481,0.084137991,0.270729827,-1.333802507,0.154262439
-0.936642289,-0.267434746,-0.226229861,0.007793248,0.020593107,0.032428622,0.029895499,-0.077663481,0.084137991,0.270729827,-1.333802507,0.154262439
-0.936642289,-0.267434746,-0.226229861,0.007793248,0.020593107,0.032428622,0.029895499,-0.077663481,0.084137991,0.270729827,-1.333802507,0.154262439
-0.936642289,-0.267434746,-0.226229861,0.007793248,0.020593107,0.032428622,0.029895499,-0.077663481,0.084137991,0.270729827,-1.333802507,0.154262439
-0.936642289,-0.267434746,-0.226229861,0.007793248,0.020593107,0.032428622,0.029895499,-0.077663481,0.084137991,0.270729827,-1.333802507,0.154262439
-0.936642289,-0.267434746,-0.226229861,0.007793248,0.020593107,0.032428622,0.029895499,-0.077663481,0.084137991,0.270729827,-1.333802507,0.154262439
-0.936642289,-0.267434746,-0.226229861,0.007793248,0.020593107,0.032428622,0.029895499,-0.077663481,0.084137991,0.270729827,-1.333802507,0.154262439
-0.936642289,-0.267434746,-0.226229861,0.007793248,0.020593107,0.032428622,0.029895499,-0.077663481,0.084137991,0.270729827,-1.333802507,0.154262439
-0.936642289,-0.267434746,-0.226229861,0.007793248,0.020593107,0.032428622,0.029895499,-0.077663481,0.084137991,0.270729827,-1.333802507,0.154262439
-0.936642289,-0.267434746,-0.226229861,0.007793248,0.020593107,0.032428622,0.029895499,-0.077663481,0.084137991,0.270729827,-1.333802507,0.154262439
-0.936642289,-0.267434746,-0.226229861,0.007793248,0.020593107,0.032428622,0.029895499,-0.077663481,0.084137991,0.270729827,-1.333802507,0.154262439
-0.936642289,-0.267434746,-0.226229861,0.007793248,0.020593107,0.032428622,0.029895499,-0.077663481,0.084137991,0.270729827,-1.333802507,0.154262439
-0.936642289,-0.267434746,-0.226229861,0.007793248,0.020593107,0.032428622,0.029895499,-0.077663481,0.084137991,0.270729827,-1.333802507,0.154262439
-0.936642289,-0.267434746,-0.226229861,0.007793248,0.020593107,0.032428622,0.029895499,-0.077663481,0.084137991,0.270729827,-1.333802507,0.154262439
-0.936642289,-0.267434746,-0.226229861,0.007793248,0.020593107,0.032428622,0.029895499,-0.077663481,0.084137991,0.270729827,-1.333802507,0.154262439
-0.936642289,-0.267434746,-0.226229861,0.007793248,0.020593107,0.032428622,0.029895499,-0.077663481,0.084137991,0.270729827,-1.333802507,0.154262439
-0.938987434,-0.264615655,-0.219730183,-0.004098594,-0.034792691,-0.009058952,-0.182861105,-0.087531611,0.021271199,0.267805337,-1.340925043,0.151883967
-0.938987434,-0.264615655,-0.219730183,-0.004098594,-0.034792691,-0.009058952,-0.182861105,-0.087531611,0.021271199,0.267805337,-1.340925043,0.151883967
-0.938987434,-0.264615655,-0.219730183,-0.004098594,-0.034792691,-0.009058952,-0.182861105,-0.087531611,0.021271199,0.267805337,-1.340925043,0.151883967
-0.938987434,-0.264615655,-0.219730183,-0.004098594,-0.034792691,-0.009058952,-0.182861105,-0.087531611,0.021271199,0.267805337,-1.340925043,0.151883967
-0.938987434,-0.264615655,-0.219730183,-0.004098594,-0.034792691,-0.009058952,-0.182861105,-0.087531611,0.021271199,0.267805337,-1.340925043,0.151883967
-0.938987434,-0.264615655,-0.219730183,-0.004098594,-0.034792691,-0.009058952,-0.182861105,-0.087531611,0.021271199,0.267805337,-1.340925043,0.151883967
-0.938987434,-0.264615655,-0.219730183,-0.004098594,-0.034792691,-0.009058952,-0.182861105,-0.087531611,0.021271199,0.267805337,-1.340925043,0.151883967
-0.938987434,-0.264615655,-0.219730183,-0.004098594,-0.034792691,-0.009058952,-0.182861105,-0.087531611,0.021271199,0.267805337,-1.340925043,0.151883967
-0.938987434,-0.264615655,-0.219730183,-0.004098594,-0.034792691,-0.009058952,-0.182861105,-0.087531611,0.021271199,0.267805337,-1.340925043,0.151883967
-0.938987434,-0.264615655,-0.219730183,-0.004098594,-0.034792691,-0.009058952,-0.182861105,-0.087531611,0.021271199,0.267805337,-1.340925043,0.151883967
-0.938987434,-0.264615655,-0.219730183,-0.004098594,-0.034792691,-0.009058952,-0.182861105,-0.087531611,0.021271199,0.267805337,-1.340925043,0.151883967
-0.938987434,-0.264615655,-0.219730183,-0.004098594,-0.034792691,-0.009058952,-0.182861105,-0.087531611,0.021271199,0.267805337,-1.340925043,0.151883967
-0.938987434,-0.264615655,-0.219730183,-0.004098594,-0.034792691,-0.009058952,-0.182861105,-0.087531611,0.021271199,0.267805337,-1.340925043,0.151883967
-0.938987434,-0.264615655,-0.219730183,-0.004098594,-0.034792691,-0.009058952,-0.182861105,-0.087531611,0.021271199,0.267805337,-1.340925043,0.151883967
-0.938987434,-0.264615655,-0.219730183,-0.004098594,-0.034792691,-0.009058952,-0.182861105,-0.087531611,0.021271199,0.267805337,-1.340925043,0.151883967
-0.938987434,-0.264615655,-0.219730183,-0.004098594,-0.034792691,-0.009058952,-0.182861105,-0.087531611,0.021271199,0.267805337,-1.340925043,0.151883967
-0.938987434,-0.264615655,-0.219730183,-0.004098594,-0.034792691,-0.009058952,-0.182861105,-0.087531611,0.021271199,0.267805337,-1.340925043,0.151883967
-0.938987434,-0.264615655,-0.219730183,-0.004098594,-0.034792691,-0.009058952,-0.182861105,-0.087531611,0.021271199,0.267805337,-1.340925043,0.151883967
-0.938987434,-0.264615655,-0.219730183,-0.004098594,-0.034792691,-0.009058952,-0.182861105,-0.087531611,0.021271199,0.267805337,-1.340925043,0.151883967
-0.941144168,-0.260555923,-0.215309829,-0.005818248,0.017666012,-0.02678448,-0.084678508,-0.059345506,-0.011584379,0.263597978,-1.345892125,0.147329832
-0.941144168,-0.260555923,-0.215309829,-0.005818248,0.017666012,-0.02678448,-0.084678508,-0.059345506,-0.011584379,0.263597978,-1.345892125,0.147329832
-0.941144168,-0.260555923,-0.215309829,-0.005818248,0.017666012,-0.02678448,-0.084678508,-0.059345506,-0.011584379,0.263597978,-1.345892125,0.147329832
-0.941144168,-0.260555923,-0.215309829,-0.005818248,0.017666012,-0.02678448,-0.084678508,-0.059345506,-0.011584379,0.263597978,-1.345892125,0.147329832
-0.941144168,-0.260555923,-0.215309829,-0.005818248,0.017666012,-0.02678448,-0.084678508,-0.059345506,-0.011584379,0.263597978,-1.345892125,0.147329832
-0.941144168,-0.260555923,-0.215309829,-0.005818248,0.017666012,-0.02678448,-0.084678508,-0.059345506,-0.011584379,0.263597978,-1.345892125,0.147329832
-0.941144168,-0.260555923,-0.215309829,-0.005818248,0.017666012,-0.02678448,-0.084678508,-0.059345506,-0.011584379,0.263597978,-1.345892125,0.147329832
-0.941144168,-0.260555923,-0.215309829,-0.005818248,0.017666012,-0.02678448,-0.084678508,-0.059345506,-0.011584379,0.263597978,-1.345892125,0.147329832
-0.941144168,-0.260555923,-0.215309829,-0.005818248,0.017666012,-0.02678448,-0.084678508,-0.059345506,-0.011584379,0.263597978,-1.345892125,0.147329832
-0.941144168,-0.260555923,-0.215309829,-0.005818248,0.017666012,-0.02678448,-0.084678508,-0.059345506,-0.011584379,0.263597978,-1.345892125,0.147329832
-0.941144168,-0.260555923,-0.215309829,-0.005818248,0.017666012,-0.02678448,-0.084678508,-0.059345506,-0.011584379,0.263597978,-1.345892125,0.147329832
-0.941144168,-0.260555923,-0.215309829,-0.005818248,0.017666012,-0.02678448,-0.084678508,-0.059345506,-0.011584379,0.263597978,-1.345892125,0.147329832
-0.941144168,-0.260555923,-0.215309829,-0.005818248,0.017666012,-0.02678448,-0.084678508,-0.059345506,-0.011584379,0.263597978,-1.345892125,0.147329832
-0.941144168,-0.260555923,-0.215309829,-0.005818248,0.017666012,-0.02678448,-0.084678508,-0.059345506,-0.011584379,0.263597978,-1.345892125,0.147329832
-0.941144168,-0.260555923,-0.215309829,-0.005818248,0.017666012,-0.02678448,-0.084678508,-0.059345506,-0.011584379,0.263597978,-1.345892125,0.147329832
-0.940525472,-0.262499869,-0.215651989,-0.013348997,0.016283572,0.007019997,-0.035402723,0.019789103,0.043848198,0.265612015,-1.345403487,0.145563419
-0.940525472,-0.262499869,-0.215651989,-0.013348997,0.016283572,0.007019997,-0.035402723,0.019789103,0.043848198,0.265612015,-1.345403487,0.145563419
-0.940525472,-0.262499869,-0.215651989,-0.013348997,0.016283572,0.007019997,-0.035402723,0.019789103,0.043848198,0.265612015,-1.345403487,0.145563419
-0.940525472,-0.262499869,-0.215651989,-0.013348997,0.016283572,0.007019997,-0.035402723,0.019789103,0.043848198,0.265612015,-1.345403487,0.145563419
-0.940525472,-0.262499869,-0.215651989,-0.013348997,0.016283572,0.007019997,-0.035402723,0.019789103,0.043848198,0.265612015,-1.345403487,0.145563419
-0.940525472,-0.262499869,-0.215651989,-0.013348997,0.016283572,0.007019997,-0.035402723,0.019789103,0.043848198,0.265612015,-1.345403487,0.145563419
-0.940525472,-0.262499869,-0.215651989,-0.013348997,0.016283572,0.007019997,-0.035402723,0.019789103,0.043848198,0.265612015,-1.345403487,0.145563419
-0.940525472,-0.262499869,-0.215651989,-0.013348997,0.016283572,0.007019997,-0.035402723,0.019789103,0.043848198,0.265612015,-1.345403487,0.145563419
-0.940525472,-0.262499869,-0.215651989,-0.013348997,0.016283572,0.007019997,-0.035402723,0.019789103,0.043848198,0.265612015,-1.345403487,0.145563419
-0.940525472,-0.262499869,-0.215651989,-0.013348997,0.016283572,0.007019997,-0.035402723,0.019789103,0.043848198,0.265612015,-1.345403487,0.145563419
-0.940525472,-0.262499869,-0.215651989,-0.013348997,0.016283572,0.007019997,-0.035402723,0.019789103,0.043848198,0.265612015,-1.345403487,0.145563419
-0.940525472,-0.262499869,-0.215651989,-0.013348997,0.016283572,0.007019997,-0.035402723,0.019789103,0.043848198,0.265612015,-1.345403487,0.145563419
-0.940525472,-0.262499869,-0.215651989,-0.013348997,0.016283572,0.007019997,-0.035402723,0.019789103,0.043848198,0.265612015,-1.345403487,0.145563419
-0.940525472,-0.262499869,-0.215651989,-0.013348997,0.016283572,0.007019997,-0.035402723,0.019789103,0.043848198,0.265612015,-1.345403487,0.145563419
-0.940525472,-0.262499869,-0.215651989,-0.013348997,0.016283572,0.007019997,-0.035402723,0.019789103,0.043848198,0.265612015,-1.345403487,0.145563419
-0.940525472,-0.262499869,-0.215651989,-0.013348997,0.016283572,0.007019997,-0.035402723,0.019789103,0.043848198,0.265612015,-1.345403487,0.145563419
-0.940525472,-0.262499869,-0.215651989,-0.013348997,0.016283572,0.007019997,-0.035402723,0.019789103,0.043848198,0.265612015,-1.345403487,0.145563419
-0.940525472,-0.262499869,-0.215651989,-0.013348997,0.016283572,0.007019997,-0.035402723,0.019789103,0.043848198,0.265612015,-1.345403487,0.145563419
-0.940525472,-0.262499869,-0.215651989,-0.013348997,0.016283572,0.007019997,-0.035402723,0.019789103,0.043848198,0.265612015,-1.345403487,0.145563419
-0.940525472,-0.262499869,-0.215651989,-0.013348997,0.016283572,0.007019997,-0.035402723,0.019789103,0.043848198,0.265612015,-1.345403487,0.145563419
-0.940525472,-0.262499869,-0.215651989,-0.013348997,0.016283572,0.007019997,-0.035402723,0.019789103,0.043848198,0.265612015,-1.345403487,0.145563419
-0.940525472,-0.262499869,-0.215651989,-0.013348997,0.016283572,0.007019997,-0.035402723,0.019789103,0.043848198,0.265612015,-1.345403487,0.145563419
-0.940525472,-0.262499869,-0.215651989,-0.013348997,0.016283572,0.007019997,-0.035402723,0.019789103,0.043848198,0.265612015,-1.345403487,0.145563419
-0.940525472,-0.262499869,-0.215651989,-0.013348997,0.016283572,0.007019997,-0.035402723,0.019789103,0.043848198,0.265612015,-1.345403487,0.145563419
-0.940727592,-0.259463042,-0.218427509,0.010153532,0.029787332,-0.000885785,-0.036172748,-0.053702615,0.0298265,0.262466156,-1.342648991,0.143145686
-0.940727592,-0.259463042,-0.218427509,0.010153532,0.029787332,-0.000885785,-0.036172748,-0.053702615,0.0298265,0.262466156,-1.342648991,0.143145686
-0.940727592,-0.259463042,-0.218427509,0.010153532,0.029787332,-0.000885785,-0.036172748,-0.053702615,0.0298265,0.262466156,-1.342648991,0.143145686
-0.940727592,-0.259463042,-0.218427509,0.010153532,0.029787332,-0.000885785,-0.036172748,-0.053702615,0.0298265,0.262466156,-1.342648991,0.143145686
-0.940727592,-0.259463042,-0.218427509,0.010153532,0.029787332,-0.000885785,-0.036172748,-0.053702615,0.0298265,0.262466156,-1.342648991,0.143145686
-0.940727592,-0.259463042,-0.218427509,0.010153532,0.029787332,-0.000885785,-0.036172748,-0.053702615,0.0298265,0.262466156,-1.342648991,0.143145686
-0.940727592,-0.259463042,-0.218427509,0.010153532,0.029787332,-0.000885785,-0.036172748,-0.053702615,0.0298265,0.262466156,-1.342648991,0.143145686
-0.940727592,-0.259463042,-0.218427509,0.010153532,0.029787332,-0.000885785,-0.036172748,-0.053702615,0.0298265,0.262466156,-1.342648991,0.143145686
-0.940727592,-0.259463042,-0.218427509,0.010153532,0.029787332,-0.000885785,-0.036172748,-0.053702615,0.0298265,0.262466156,-1.342648991,0.143145686
-0.940727592,-0.259463042,-0.218427509,0.010153532,0.029787332,-0.000885785,-0.036172748,-0.053702615,0.0298265,0.262466156,-1.342648991,0.143145686
-0.940727592,-0.259463042,-0.218427509,0.010153532,0.029787332,-0.000885785,-0.036172748,-0.053702615,0.0298265,0.262466156,-1.342648991,0.143145686
-0.940727592,-0.259463042,-0.218427509,0.010153532,0.029787332,-0.000885785,-0.036172748,-0.053702615,0.0298265,0.262466156,-1.342648991,0.143145686
-0.940727592,-0.259463042,-0.218427509,0.010153532,0.029787332,-0.000885785,-0.036172748,-0.053702615,0.0298265,0.262466156,-1.342648991,0.143145686
-0.940727592,-0.259463042,-0.218427509,0.010153532,0.029787332,-0.000885785,-0.036172748,-0.053702615,0.0298265,0.262466156,-1.342648991,0.143145686
-0.940727592,-0.259463042,-0.218427509,0.010153532,0.029787332,-0.000885785,-0.036172748,-0.053702615,0.0298265,0.262466156,-1.342648991,0.143145686
-0.940727592,-0.259463042,-0.218427509,0.010153532,0.029787332,-0.000885785,-0.036172748,-0.053702615,0.0298265,0.262466156,-1.342648991,0.143145686
-0.940727592,-0.259463042,-0.218427509,0.010153532,0.029787332,-0.000885785,-0.036172748,-0.053702615,0.0298265,0.262466156,-1.342648991,0.143145686
-0.940727592,-0.259463042,-0.218427509,0.010153532,0.029787332,-0.000885785,-0.036172748,-0.053702615,0.0298265,0.262466156,-1.342648991,0.143145686
-0.940727592,-0.259463042,-0.218427509,0.010153532,0.029787332,-0.000885785,-0.036172748,-0.053702615,0.0298265,0.262466156,-1.342648991,0.143145686
-0.947396457,-0.243472531,-0.207752883,0.000357032,0.010714293,-0.033135414,0.004378673,-0.025499694,0.009484475,0.245944521,-1.354925036,0.157090112
-0.947396457,-0.243472531,-0.207752883,0.000357032,0.010714293,-0.033135414,0.004378673,-0.025499694,0.009484475,0.245944521,-1.354925036,0.157090112
-0.947396457,-0.243472531,-0.207752883,0.000357032,0.010714293,-0.033135414,0.004378673,-0.025499694,0.009484475,0.245944521,-1.354925036,0.157090112
-0.951467633,-0.231903791,-0.202311739,0.001452804,0.010406569,-0.000460088,-0.093063556,-0.026878741,0.054134659,0.234034379,-1.361285371,0.166071054
-0.951467633,-0.231903791,-0.202311739,0.001452804,0.010406569,-0.000460088,-0.093063556,-0.026878741,0.054134659,0.234034379,-1.361285371,0.166071054
-0.951467633,-0.231903791,-0.202311739,0.001452804,0.010406569,-0.000460088,-0.093063556,-0.026878741,0.054134659,0.234034379,-1.361285371,0.166071054
-0.951282859,-0.233104959,-0.201799661,0.005647123,0.004298747,-0.017802477,0.115334228,-0.014022669,-0.019481875,0.235269394,-1.361760922,0.167881344
-0.951282859,-0.233104959,-0.201799661,0.005647123,0.004298747,-0.017802477,0.115334228,-0.014022669,-0.019481875,0.235269394,-1.361760922,0.167881344
-0.951282859,-0.233104959,-0.201799661,0.005647123,0.004298747,-0.017802477,0.115334228,-0.014022669,-0.019481875,0.235269394,-1.361760922,0.167881344
-0.951282859,-0.233104959,-0.201799661,0.005647123,0.004298747,-0.017802477,0.115334228,-0.014022669,-0.019481875,0.235269394,-1.361760922,0.167881344
-0.951282859,-0.233104959,-0.201799661,0.005647123,0.004298747,-0.017802477,0.115334228,-0.014022669,-0.019481875,0.235269394,-1.361760922,0.167881344
-0.951282859,-0.233104959,-0.201799661,0.005647123,0.004298747,-0.017802477,0.115334228,-0.014022669,-0.019481875,0.235269394,-1.361760922,0.167881344
-0.951282859,-0.233104959,-0.201799661,0.005647123,0.004298747,-0.017802477,0.115334228,-0.014022669,-0.019481875,0.235269394,-1.361760922,0.167881344
-0.951282859,-0.233104959,-0.201799661,0.005647123,0.004298747,-0.017802477,0.115334228,-0.014022669,-0.019481875,0.235269394,-1.361760922,0.167881344
-0.951282859,-0.233104959,-0.201799661,0.005647123,0.004298747,-0.017802477,0.115334228,-0.014022669,-0.019481875,0.235269394,-1.361760922,0.167881344
-0.951282859,-0.233104959,-0.201799661,0.005647123,0.004298747,-0.017802477,0.115334228,-0.014022669,-0.019481875,0.235269394,-1.361760922,0.167881344
-0.951282859,-0.233104959,-0.201799661,0.005647123,0.004298747,-0.017802477,0.115334228,-0.014022669,-0.019481875,0.235269394,-1.361760922,0.167881344
-0.951282859,-0.233104959,-0.201799661,0.005647123,0.004298747,-0.017802477,0.115334228,-0.014022669,-0.019481875,0.235269394,-1.361760922,0.167881344
-0.951282859,-0.233104959,-0.201799661,0.005647123,0.004298747,-0.017802477,0.115334228,-0.014022669,-0.019481875,0.235269394,-1.361760922,0.167881344
-0.951282859,-0.233104959,-0.201799661,0.005647123,0.004298747,-0.017802477,0.115334228,-0.014022669,-0.019481875,0.235269394,-1.361760922,0.167881344
-0.951282859,-0.233104959,-0.201799661,0.005647123,0.004298747,-0.017802477,0.115334228,-0.014022669,-0.019481875,0.235269394,-1.361760922,0.167881344
-0.950881481,-0.235824451,-0.200527877,-0.003742099,-0.014023751,-0.008514822,0.023451872,0.008942907,-0.001200234,0.23806686,-1.362955422,0.171812129
-0.950881481,-0.235824451,-0.200527877,-0.003742099,-0.014023751,-0.008514822,0.023451872,0.008942907,-0.001200234,0.23806686,-1.362955422,0.171812129
-0.950881481,-0.235824451,-0.200527877,-0.003742099,-0.014023751,-0.008514822,0.023451872,0.008942907,-0.001200234,0.23806686,-1.362955422,0.171812129
-0.950881481,-0.235824451,-0.200527877,-0.003742099,-0.014023751,-0.008514822,0.023451872,0.008942907,-0.001200234,0.23806686,-1.362955422,0.171812129
-0.950881481,-0.235824451,-0.200527877,-0.003742099,-0.014023751,-0.008514822,0.023451872,0.008942907,-0.001200234,0.23806686,-1.362955422,0.171812129
-0.950881481,-0.235824451,-0.200527877,-0.003742099,-0.014023751,-0.008514822,0.023451872,0.008942907,-0.001200234,0.23806686,-1.362955422,0.171812129
-0.950881481,-0.235824451,-0.200527877,-0.003742099,-0.014023751,-0.008514822,0.023451872,0.008942907,-0.001200234,0.23806686,-1.362955422,0.171812129
-0.950881481,-0.235824451,-0.200527877,-0.003742099,-0.014023751,-0.008514822,0.023451872,0.008942907,-0.001200234,0.23806686,-1.362955422,0.171812129
-0.950881481,-0.235824451,-0.200527877,-0.003742099,-0.014023751,-0.008514822,0.023451872,0.008942907,-0.001200234,0.23806686,-1.362955422,0.171812129
-0.950881481,-0.235824451,-0.200527877,-0.003742099,-0.014023751,-0.008514822,0.023451872,0.008942907,-0.001200234,0.23806686,-1.362955422,0.171812129
-0.950881481,-0.235824451,-0.200527877,-0.003742099,-0.014023751,-0.008514822,0.023451872,0.008942907,-0.001200234,0.23806686,-1.362955422,0.171812129
-0.950881481,-0.235824451,-0.200527877,-0.003742099,-0.014023751,-0.008514822,0.023451872,0.008942907,-0.001200234,0.23806686,-1.362955422,0.171812129
-0.950881481,-0.235824451,-0.200527877,-0.003742099,-0.014023751,-0.008514822,0.023451872,0.008942907,-0.001200234,0.23806686,-1.362955422,0.171812129
-0.950881481,-0.235824451,-0.200527877,-0.003742099,-0.014023751,-0.008514822,0.023451872,0.008942907,-0.001200234,0.23806686,-1.362955422,0.171812129
-0.950728059,-0.235075697,-0.20212768,0.003261209,-0.009080872,-0.011798203,-0.029305987,0.016933795,-0.025308659,0.237296442,-1.361312342,0.170027901
-0.950728059,-0.235075697,-0.20212768,0.003261209,-0.009080872,-0.011798203,-0.029305987,0.016933795,-0.025308659,0.237296442,-1.361312342,0.170027901
-0.950728059,-0.235075697,-0.20212768,0.003261209,-0.009080872,-0.011798203,-0.029305987,0.016933795,-0.025308659,0.237296442,-1.361312342,0.170027901
-0.950728059,-0.235075697,-0.20212768,0.003261209,-0.009080872,-0.011798203,-0.029305987,0.016933795,-0.025308659,0.237296442,-1.361312342,0.170027901
-0.950728059,-0.235075697,-0.20212768,0.003261209,-0.009080872,-0.011798203,-0.029305987,0.016933795,-0.025308659,0.237296442,-1.361312342,0.170027901
-0.950728059,-0.235075697,-0.20212768,0.003261209,-0.009080872,-0.011798203,-0.029305987,0.016933795,-0.025308659,0.237296442,-1.361312342,0.170027901
-0.950728059,-0.235075697,-0.20212768,0.003261209,-0.009080872,-0.011798203,-0.029305987,0.016933795,-0.025308659,0.237296442,-1.361312342,0.170027901
-0.950728059,-0.235075697,-0.20212768,0.003261209,-0.009080872,-0.011798203,-0.029305987,0.016933795,-0.025308659,0.237296442,-1.361312342,0.170027901
-0.950728059,-0.235075697,-0.20212768,0.003261209,-0.009080872,-0.011798203,-0.029305987,0.016933795,-0.025308659,0.237296442,-1.361312342,0.170027901
-0.950728059,-0.235075697,-0.20212768,0.003261209,-0.009080872,-0.011798203,-0.029305987,0.016933795,-0.025308659,0.237296442,-1.361312342,0.170027901
-0.950728059,-0.235075697,-0.20212768,0.003261209,-0.009080872,-0.011798203,-0.029305987,0.016933795,-0.025308659,0.237296442,-1.361312342,0.170027901
-0.950728059,-0.235075697,-0.20212768,0.003261209,-0.009080872,-0.011798203,-0.029305987,0.016933795,-0.025308659,0.237296442,-1.361312342,0.170027901
-0.949866593,-0.237885937,-0.202888593,0.006031573,0.0016945,0.007837653,0.021319253,0.017026315,-0.064182237,0.240188728,-1.360361637,0.170564103
-0.949866593,-0.237885937,-0.202888593,0.006031573,0.0016945,0.007837653,0.021319253,0.017026315,-0.064182237,0.240188728,-1.360361637,0.170564103
-0.949866593,-0.237885937,-0.202888593,0.006031573,0.0016945,0.007837653,0.021319253,0.017026315,-0.064182237,0.240188728,-1.360361637,0.170564103
-0.949866593,-0.237885937,-0.202888593,0.006031573,0.0016945,0.007837653,0.021319253,0.017026315,-0.064182237,0.240188728,-1.360361637,0.170564103
-0.949866593,-0.237885937,-0.202888593,0.006031573,0.0016945,0.007837653,0.021319253,0.017026315,-0.064182237,0.240188728,-1.360361637,0.170564103
-0.949866593,-0.237885937,-0.202888593,0.006031573,0.0016945,0.007837653,0.021319253,0.017026315,-0.064182237,0.240188728,-1.360361637,0.170564103
-0.949866593,-0.237885937,-0.202888593,0.006031573,0.0016945,0.007837653,0.021319253,0.017026315,-0.064182237,0.240188728,-1.360361637,0.170564103
-0.949866593,-0.237885937,-0.202888593,0.006031573,0.0016945,0.007837653,0.021319253,0.017026315,-0.064182237,0.240188728,-1.360361637,0.170564103
-0.949866593,-0.237885937,-0.202888593,0.006031573,0.0016945,0.007837653,0.021319253,0.017026315,-0.064182237,0.240188728,-1.360361637,0.170564103
-0.949866593,-0.237885937,-0.202888593,0.006031573,0.0016945,0.007837653,0.021319253,0.017026315,-0.064182237,0.240188728,-1.360361637,0.170564103
-0.949866593,-0.237885937,-0.202888593,0.006031573,0.0016945,0.007837653,0.021319253,0.017026315,-0.064182237,0.240188728,-1.360361637,0.170564103
-0.949866593,-0.237885937,-0.202888593,0.006031573,0.0016945,0.007837653,0.021319253,0.017026315,-0.064182237,0.240188728,-1.360361637,0.170564103
-0.949866593,-0.237885937,-0.202888593,0.006031573,0.0016945,0.007837653,0.021319253,0.017026315,-0.064182237,0.240188728,-1.360361637,0.170564103
-0.949866593,-0.237885937,-0.202888593,0.006031573,0.0016945,0.007837653,0.021319253,0.017026315,-0.064182237,0.240188728,-1.360361637,0.170564103
-0.949866593,-0.237885937,-0.202888593,0.006031573,0.0016945,0.007837653,0.021319253,0.017026315,-0.064182237,0.240188728,-1.360361637,0.170564103
-0.949866593,-0.237885937,-0.202888593,0.006031573,0.0016945,0.007837653,0.021319253,0.017026315,-0.064182237,0.240188728,-1.360361637,0.170564103
-0.949866593,-0.237885937,-0.202888593,0.006031573,0.0016945,0.007837653,0.021319253,0.017026315,-0.064182237,0.240188728,-1.360361637,0.170564103
-0.949866593,-0.237885937,-0.202888593,0.006031573,0.0016945,0.007837653,0.021319253,0.017026315,-0.064182237,0.240188728,-1.360361637,0.170564103
-0.949866593,-0.237885937,-0.202888593,0.006031573,0.0016945,0.007837653,0.021319253,0.017026315,-0.064182237,0.240188728,-1.360361637,0.170564103
-0.949866593,-0.237885937,-0.202888593,0.006031573,0.0016945,0.007837653,0.021319253,0.017026315,-0.064182237,0.240188728,-1.360361637,0.170564103
-0.949866593,-0.237885937,-0.202888593,0.006031573,0.0016945,0.007837653,0.021319253,0.017026315,-0.064182237,0.240188728,-1.360361637,0.170564103
-0.949866593,-0.237885937,-0.202888593,0.006031573,0.0016945,0.007837653,0.021319253,0.017026315,-0.064182237,0.240188728,-1.360361637,0.170564103
-0.949866593,-0.237885937,-0.202888593,0.006031573,0.0016945,0.007837653,0.021319253,0.017026315,-0.064182237,0.240188728,-1.360361637,0.170564103
-0.949866593,-0.237885937,-0.202888593,0.006031573,0.0016945,0.007837653,0.021319253,0.017026315,-0.064182237,0.240188728,-1.360361637,0.170564103
-0.948913515,-0.239034459,-0.205974877,-0.019594848,-0.030360088,0.015028417,-0.23959212,0.056958213,-0.008645314,0.241371356,-1.357048288,0.165389465
-0.948913515,-0.239034459,-0.205974877,-0.019594848,-0.030360088,0.015028417,-0.23959212,0.056958213,-0.008645314,0.241371356,-1.357048288,0.165389465
-0.948913515,-0.239034459,-0.205974877,-0.019594848,-0.030360088,0.015028417,-0.23959212,0.056958213,-0.008645314,0.241371356,-1.357048288,0.165389465
-0.948913515,-0.239034459,-0.205974877,-0.019594848,-0.030360088,0.015028417,-0.23959212,0.056958213,-0.008645314,0.241371356,-1.357048288,0.165389465
-0.948913515,-0.239034459,-0.205974877,-0.019594848,-0.030360088,0.015028417,-0.23959212,0.056958213,-0.008645314,0.241371356,-1.357048288,0.165389465
-0.948913515,-0.239034459,-0.205974877,-0.019594848,-0.030360088,0.015028417,-0.23959212,0.056958213,-0.008645314,0.241371356,-1.357048288,0.165389465
-0.948913515,-0.239034459,-0.205974877,-0.019594848,-0.030360088,0.015028417,-0.23959212,0.056958213,-0.008645314,0.241371356,-1.357048288,0.165389465
-0.948913515,-0.239034459,-0.205974877,-0.019594848,-0.030360088,0.015028417,-0.23959212,0.056958213,-0.008645314,0.241371356,-1.357048288,0.165389465
-0.948913515,-0.239034459,-0.205974877,-0.019594848,-0.030360088,0.015028417,-0.23959212,0.056958213,-0.008645314,0.241371356,-1.357048288,0.165389465
-0.948913515,-0.239034459,-0.205974877,-0.019594848,-0.030360088,0.015028417,-0.23959212,0.056958213,-0.008645314,0.241371356,-1.357048288,0.165389465
-0.948913515,-0.239034459,-0.205974877,-0.019594848,-0.030360088,0.015028417,-0.23959212,0.056958213,-0.008645314,0.241371356,-1.357048288,0.165389465
-0.948913515,-0.239034459,-0.205974877,-0.019594848,-0.030360088,0.015028417,-0.23959212,0.056958213,-0.008645314,0.241371356,-1.357048288,0.165389465
-0.948913515,-0.239034459,-0.205974877,-0.019594848,-0.030360088,0.015028417,-0.23959212,0.056958213,-0.008645314,0.241371356,-1.357048288,0.165389465
-0.948913515,-0.239034459,-0.205974877,-0.019594848,-0.030360088,0.015028417,-0.23959212,0.056958213,-0.008645314,0.241371356,-1.357048288,0.165389465
-0.948913515,-0.239034459,-0.205974877,-0.019594848,-0.030360088,0.015028417,-0.23959212,0.056958213,-0.008645314,0.241371356,-1.357048288,0.165389465
-0.948913515,-0.239034459,-0.205974877,-0.019594848,-0.030360088,0.015028417,-0.23959212,0.056958213,-0.008645314,0.241371356,-1.357048288,0.165389465
-0.948913515,-0.239034459,-0.205974877,-0.019594848,-0.030360088,0.015028417,-0.23959212,0.056958213,-0.008645314,0.241371356,-1.357048288,0.165389465
-0.948477566,-0.238373742,-0.208730549,0.01617831,0.015961006,-0.000465393,-0.050384883,0.00540497,-0.048153415,0.240690979,-1.354180173,0.158256869
-0.948477566,-0.238373742,-0.208730549,0.01617831,0.015961006,-0.000465393,-0.050384883,0.00540497,-0.048153415,0.240690979,-1.354180173,0.158256869
-0.948477566,-0.238373742,-0.208730549,0.01617831,0.015961006,-0.000465393,-0.050384883,0.00540497,-0.048153415,0.240690979,-1.354180173,0.158256869
-0.948477566,-0.238373742,-0.208730549,0.01617831,0.015961006,-0.000465393,-0.050384883,0.00540497,-0.048153415,0.240690979,-1.354180173,0.158256869
-0.948477566,-0.238373742,-0.208730549,0.01617831,0.015961006,-0.000465393,-0.050384883,0.00540497,-0.048153415,0.240690979,-1.354180173,0.158256869
-0.948477566,-0.238373742,-0.208730549,0.01617831,0.015961006,-0.000465393,-0.050384883,0.00540497,-0.048153415,0.240690979,-1.354180173,0.158256869
-0.948477566,-0.238373742,-0.208730549,0.01617831,0.015961006,-0.000465393,-0.050384883,0.00540497,-0.048153415,0.240690979,-1.354180173,0.158256869
-0.948477566,-0.238373742,-0.208730549,0.01617831,0.015961006,-0.000465393,-0.050384883,0.00540497,-0.048153415,0.240690979,-1.354180173,0.158256869
-0.948477566,-0.238373742,-0.208730549,0.01617831,0.015961006,-0.000465393,-0.050384883,0.00540497,-0.048153415,0.240690979,-1.354180173,0.158256869
-0.948477566,-0.238373742,-0.208730549,0.01617831,0.015961006,-0.000465393,-0.050384883,0.00540497,-0.048153415,0.240690979,-1.354180173,0.158256869
-0.948477566,-0.238373742,-0.208730549,0.01617831,0.015961006,-0.000465393,-0.050384883,0.00540497,-0.048153415,0.240690979,-1.354180173,0.158256869
-0.948477566,-0.238373742,-0.208730549,0.01617831,0.015961006,-0.000465393,-0.050384883,0.00540497,-0.048153415,0.240690979,-1.354180173,0.158256869
-0.948477566,-0.238373742,-0.208730549,0.01617831,0.015961006,-0.000465393,-0.050384883,0.00540497,-0.048153415,0.240690979,-1.354180173,0.158256869
-0.948477566,-0.238373742,-0.208730549,0.01617831,0.015961006,-0.000465393,-0.050384883,0.00540497,-0.048153415,0.240690979,-1.354180173,0.158256869
-0.948477566,-0.238373742,-0.208730549,0.01617831,0.015961006,-0.000465393,-0.050384883,0.00540497,-0.048153415,0.240690979,-1.354180173,0.158256869
-0.948389828,-0.237632319,-0.209970444,-0.030021489,-0.034279928,-0.025333285,-0.568598926,0.068242498,0.056163032,0.239927612,-1.352914132,0.150531508
-0.948389828,-0.237632319,-0.209970444,-0.030021489,-0.034279928,-0.025333285,-0.568598926,0.068242498,0.056163032,0.239927612,-1.352914132,0.150531508
-0.948389828,-0.237632319,-0.209970444,-0.030021489,-0.034279928,-0.025333285,-0.568598926,0.068242498,0.056163032,0.239927612,-1.352914132,0.150531508
-0.948389828,-0.237632319,-0.209970444,-0.030021489,-0.034279928,-0.025333285,-0.568598926,0.068242498,0.056163032,0.239927612,-1.352914132,0.150531508
-0.948389828,-0.237632319,-0.209970444,-0.030021489,-0.034279928,-0.025333285,-0.568598926,0.068242498,0.056163032,0.239927612,-1.352914132,0.150531508
-0.948389828,-0.237632319,-0.209970444,-0.030021489,-0.034279928,-0.025333285,-0.568598926,0.068242498,0.056163032,0.239927612,-1.352914132,0.150531508
-0.948389828,-0.237632319,-0.209970444,-0.030021489,-0.034279928,-0.025333285,-0.568598926,0.068242498,0.056163032,0.239927612,-1.352914132,0.150531508
-0.948389828,-0.237632319,-0.209970444,-0.030021489,-0.034279928,-0.025333285,-0.568598926,0.068242498,0.056163032,0.239927612,-1.352914132,0.150531508
-0.948389828,-0.237632319,-0.209970444,-0.030021489,-0.034279928,-0.025333285,-0.568598926,0.068242498,0.056163032,0.239927612,-1.352914132,0.150531508
-0.948389828,-0.237632319,-0.209970444,-0.030021489,-0.034279928,-0.025333285,-0.568598926,0.068242498,0.056163032,0.239927612,-1.352914132,0.150531508
-0.948389828,-0.237632319,-0.209970444,-0.030021489,-0.034279928,-0.025333285,-0.568598926,0.068242498,0.056163032,0.239927612,-1.352914132,0.150531508
-0.948389828,-0.237632319,-0.209970444,-0.030021489,-0.034279928,-0.025333285,-0.568598926,0.068242498,0.056163032,0.239927612,-1.352914132,0.150531508
-0.948389828,-0.237632319,-0.209970444,-0.030021489,-0.034279928,-0.025333285,-0.568598926,0.068242498,0.056163032,0.239927612,-1.352914132,0.150531508
-0.948389828,-0.237632319,-0.209970444,-0.030021489,-0.034279928,-0.025333285,-0.568598926,0.068242498,0.056163032,0.239927612,-1.352914132,0.150531508
-0.948389828,-0.237632319,-0.209970444,-0.030021489,-0.034279928,-0.025333285,-0.568598926,0.068242498,0.056163032,0.239927612,-1.352914132,0.150531508
-0.948082864,-0.224924803,-0.224828556,-0.023935378,-0.092641771,-0.007636786,-0.837527335,0.271845073,0.277025402,0.226865859,-1.337957142,0.120541132
-0.948082864,-0.224924803,-0.224828556,-0.023935378,-0.092641771,-0.007636786,-0.837527335,0.271845073,0.277025402,0.226865859,-1.337957142,0.120541132
-0.948082864,-0.224924803,-0.224828556,-0.023935378,-0.092641771,-0.007636786,-0.837527335,0.271845073,0.277025402,0.226865859,-1.337957142,0.120541132
-0.948082864,-0.224924803,-0.224828556,-0.023935378,-0.092641771,-0.007636786,-0.837527335,0.271845073,0.277025402,0.226865859,-1.337957142,0.120541132
-0.948082864,-0.224924803,-0.224828556,-0.023935378,-0.092641771,-0.007636786,-0.837527335,0.271845073,0.277025402,0.226865859,-1.337957142,0.120541132
-0.948082864,-0.224924803,-0.224828556,-0.023935378,-0.092641771,-0.007636786,-0.837527335,0.271845073,0.277025402,0.226865859,-1.337957142,0.120541132
-0.948082864,-0.224924803,-0.224828556,-0.023935378,-0.092641771,-0.007636786,-0.837527335,0.271845073,0.277025402,0.226865859,-1.337957142,0.120541132
-0.948082864,-0.224924803,-0.224828556,-0.023935378,-0.092641771,-0.007636786,-0.837527335,0.271845073,0.277025402,0.226865859,-1.337957142,0.120541132
-0.948082864,-0.224924803,-0.224828556,-0.023935378,-0.092641771,-0.007636786,-0.837527335,0.271845073,0.277025402,0.226865859,-1.337957142,0.120541132
-0.948082864,-0.224924803,-0.224828556,-0.023935378,-0.092641771,-0.007636786,-0.837527335,0.271845073,0.277025402,0.226865859,-1.337957142,0.120541132
-0.948082864,-0.224924803,-0.224828556,-0.023935378,-0.092641771,-0.007636786,-0.837527335,0.271845073,0.277025402,0.226865859,-1.337957142,0.120541132
-0.948082864,-0.224924803,-0.224828556,-0.023935378,-0.092641771,-0.007636786,-0.837527335,0.271845073,0.277025402,0.226865859,-1.337957142,0.120541132
-0.948082864,-0.224924803,-0.224828556,-0.023935378,-0.092641771,-0.007636786,-0.837527335,0.271845073,0.277025402,0.226865859,-1.337957142,0.120541132
-0.948082864,-0.224924803,-0.224828556,-0.023935378,-0.092641771,-0.007636786,-0.837527335,0.271845073,0.277025402,0.226865859,-1.337957142,0.120541132
-0.947618246,-0.211200908,-0.23961249,0.031508148,0.110889003,0.018133461,-0.288796008,0.193635479,0.041556977,0.212803426,-1.323129957,0.097558614
-0.947618246,-0.211200908,-0.23961249,0.031508148,0.110889003,0.018133461,-0.288796008,0.193635479,0.041556977,0.212803426,-1.323129957,0.097558614
-0.947618246,-0.211200908,-0.23961249,0.031508148,0.110889003,0.018133461,-0.288796008,0.193635479,0.041556977,0.212803426,-1.323129957,0.097558614
-0.947618246,-0.211200908,-0.23961249,0.031508148,0.110889003,0.018133461,-0.288796008,0.193635479,0.041556977,0.212803426,-1.323129957,0.097558614
-0.947618246,-0.211200908,-0.23961249,0.031508148,0.110889003,0.018133461,-0.288796008,0.193635479,0.041556977,0.212803426,-1.323129957,0.097558614
-0.947618246,-0.211200908,-0.23961249,0.031508148,0.110889003,0.018133461,-0.288796008,0.193635479,0.041556977,0.212803426,-1.323129957,0.097558614
-0.947618246,-0.211200908,-0.23961249,0.031508148,0.110889003,0.018133461,-0.288796008,0.193635479,0.041556977,0.212803426,-1.323129957,0.097558614
-0.947618246,-0.211200908,-0.23961249,0.031508148,0.110889003,0.018133461,-0.288796008,0.193635479,0.041556977,0.212803426,-1.323129957,0.097558614
-0.947618246,-0.211200908,-0.23961249,0.031508148,0.110889003,0.018133461,-0.288796008,0.193635479,0.041556977,0.212803426,-1.323129957,0.097558614
-0.947618246,-0.211200908,-0.23961249,0.031508148,0.110889003,0.018133461,-0.288796008,0.193635479,0.041556977,0.212803426,-1.323129957,0.097558614
-0.947618246,-0.211200908,-0.23961249,0.031508148,0.110889003,0.018133461,-0.288796008,0.193635479,0.041556977,0.212803426,-1.323129957,0.097558614
-0.947618246,-0.211200908,-0.23961249,0.031508148,0.110889003,0.018133461,-0.288796008,0.193635479,0.041556977,0.212803426,-1.323129957,0.097558614
-0.947618246,-0.211200908,-0.23961249,0.031508148,0.110889003,0.018133461,-0.288796008,0.193635479,0.041556977,0.212803426,-1.323129957,0.097558614
-0.946640134,-0.212196246,-0.242580637,0.016690373,0.045188159,0.023954988,0.122373514,-0.014218763,-0.017080184,0.21382184,-1.319939952,0.097934086
-0.946640134,-0.212196246,-0.242580637,0.016690373,0.045188159,0.023954988,0.122373514,-0.014218763,-0.017080184,0.21382184,-1.319939952,0.097934086
-0.946640134,-0.212196246,-0.242580637,0.016690373,0.045188159,0.023954988,0.122373514,-0.014218763,-0.017080184,0.21382184,-1.319939952,0.097934086
-0.946640134,-0.212196246,-0.242580637,0.016690373,0.045188159,0.023954988,0.122373514,-0.014218763,-0.017080184,0.21382184,-1.319939952,0.097934086
-0.946640134,-0.212196246,-0.242580637,0.016690373,0.045188159,0.023954988,0.122373514,-0.014218763,-0.017080184,0.21382184,-1.319939952,0.097934086
-0.946640134,-0.212196246,-0.242580637,0.016690373,0.045188159,0.023954988,0.122373514,-0.014218763,-0.017080184,0.21382184,-1.319939952,0.097934086
-0.946640134,-0.212196246,-0.242580637,0.016690373,0.045188159,0.023954988,0.122373514,-0.014218763,-0.017080184,0.21382184,-1.319939952,0.097934086
-0.946640134,-0.212196246,-0.242580637,0.016690373,0.045188159,0.023954988,0.122373514,-0.014218763,-0.017080184,0.21382184,-1.319939952,0.097934086
-0.946640134,-0.212196246,-0.242580637,0.016690373,0.045188159,0.023954988,0.122373514,-0.014218763,-0.017080184,0.21382184,-1.319939952,0.097934086
-0.946640134,-0.212196246,-0.242580637,0.016690373,0.045188159,0.023954988,0.122373514,-0.014218763,-0.017080184,0.21382184,-1.319939952,0.097934086
-0.946640134,-0.212196246,-0.242580637,0.016690373,0.045188159,0.023954988,0.122373514,-0.014218763,-0.017080184,0.21382184,-1.319939952,0.097934086
-0.946640134,-0.212196246,-0.242580637,0.016690373,0.045188159,0.023954988,0.122373514,-0.014218763,-0.017080184,0.21382184,-1.319939952,0.097934086
-0.946640134,-0.212196246,-0.242580637,0.016690373,0.045188159,0.023954988,0.122373514,-0.014218763,-0.017080184,0.21382184,-1.319939952,0.097934086
-0.946640134,-0.212196246,-0.242580637,0.016690373,0.045188159,0.023954988,0.122373514,-0.014218763,-0.017080184,0.21382184,-1.319939952,0.097934086
-0.947252333,-0.212379292,-0.240017012,0.023268938,0.013358325,0.005323708,0.024078155,-0.096879669,-0.006285114,0.214009148,-1.322636819,0.098627424
-0.947252333,-0.212379292,-0.240017012,0.023268938,0.013358325,0.005323708,0.024078155,-0.096879669,-0.006285114,0.214009148,-1.322636819,0.098627424
-0.947252333,-0.212379292,-0.240017012,0.023268938,0.013358325,0.005323708,0.024078155,-0.096879669,-0.006285114,0.214009148,-1.322636819,0.098627424
-0.947252333,-0.212379292,-0.240017012,0.023268938,0.013358325,0.005323708,0.024078155,-0.096879669,-0.006285114,0.214009148,-1.322636819,0.098627424
-0.947252333,-0.212379292,-0.240017012,0.023268938,0.013358325,0.005323708,0.024078155,-0.096879669,-0.006285114,0.214009148,-1.322636819,0.098627424
-0.947252333,-0.212379292,-0.240017012,0.023268938,0.013358325,0.005323708,0.024078155,-0.096879669,-0.006285114,0.214009148,-1.322636819,0.098627424
-0.947252333,-0.212379292,-0.240017012,0.023268938,0.013358325,0.005323708,0.024078155,-0.096879669,-0.006285114,0.214009148,-1.322636819,0.098627424
-0.947252333,-0.212379292,-0.240017012,0.023268938,0.013358325,0.005323708,0.024078155,-0.096879669,-0.006285114,0.214009148,-1.322636819,0.098627424
-0.947252333,-0.212379292,-0.240017012,0.023268938,0.013358325,0.005323708,0.024078155,-0.096879669,-0.006285114,0.214009148,-1.322636819,0.098627424
-0.947252333,-0.212379292,-0.240017012,0.023268938,0.013358325,0.005323708,0.024078155,-0.096879669,-0.006285114,0.214009148,-1.322636819,0.098627424
-0.947252333,-0.212379292,-0.240017012,0.023268938,0.013358325,0.005323708,0.024078155,-0.096879669,-0.006285114,0.214009148,-1.322636819,0.098627424
-0.947252333,-0.212379292,-0.240017012,0.023268938,0.013358325,0.005323708,0.024078155,-0.096879669,-0.006285114,0.214009148,-1.322636819,0.098627424
-0.947252333,-0.212379292,-0.240017012,0.023268938,0.013358325,0.005323708,0.024078155,-0.096879669,-0.006285114,0.214009148,-1.322636819,0.098627424
-0.947252333,-0.212379292,-0.240017012,0.023268938,0.013358325,0.005323708,0.024078155,-0.096879669,-0.006285114,0.214009148,-1.322636819,0.098627424
-0.947252333,-0.212379292,-0.240017012,0.023268938,0.013358325,0.005323708,0.024078155,-0.096879669,-0.006285114,0.214009148,-1.322636819,0.098627424
-0.947252333,-0.212379292,-0.240017012,0.023268938,0.013358325,0.005323708,0.024078155,-0.096879669,-0.006285114,0.214009148,-1.322636819,0.098627424
-0.947252333,-0.212379292,-0.240017012,0.023268938,0.013358325,0.005323708,0.024078155,-0.096879669,-0.006285114,0.214009148,-1.322636819,0.098627424
-0.947994173,-0.213929072,-0.235672206,0.001839399,0.021743938,-0.030957401,0.174972147,-0.080793902,-0.018470034,0.215595394,-1.32713489,0.103430755
-0.947994173,-0.213929072,-0.235672206,0.001839399,0.021743938,-0.030957401,0.174972147,-0.080793902,-0.018470034,0.215595394,-1.32713489,0.103430755
-0.947994173,-0.213929072,-0.235672206,0.001839399,0.021743938,-0.030957401,0.174972147,-0.080793902,-0.018470034,0.215595394,-1.32713489,0.103430755
-0.947994173,-0.213929072,-0.235672206,0.001839399,0.021743938,-0.030957401,0.174972147,-0.080793902,-0.018470034,0.215595394,-1.32713489,0.103430755
-0.947994173,-0.213929072,-0.235672206,0.001839399,0.021743938,-0.030957401,0.174972147,-0.080793902,-0.018470034,0.215595394,-1.32713489,0.103430755
-0.947994173,-0.213929072,-0.235672206,0.001839399,0.021743938,-0.030957401,0.174972147,-0.080793902,-0.018470034,0.215595394,-1.32713489,0.103430755
-0.948453784,-0.216084167,-0.231825903,-0.018392265,-0.004421353,-0.025129378,0.14022094,-0.043411583,-0.029029628,0.2178021,-1.331071479,0.109663243
-0.948453784,-0.216084167,-0.231825903,-0.018392265,-0.004421353,-0.025129378,0.14022094,-0.043411583,-0.029029628,0.2178021,-1.331071479,0.109663243
-0.948453784,-0.216084167,-0.231825903,-0.018392265,-0.004421353,-0.025129378,0.14022094,-0.043411583,-0.029029628,0.2178021,-1.331071479,0.109663243
-0.948453784,-0.216084167,-0.231825903,-0.018392265,-0.004421353,-0.025129378,0.14022094,-0.043411583,-0.029029628,0.2178021,-1.331071479,0.109663243
-0.948453784,-0.216084167,-0.231825903,-0.018392265,-0.004421353,-0.025129378,0.14022094,-0.043411583,-0.029029628,0.2178021,-1.331071479,0.109663243
-0.948453784,-0.216084167,-0.231825903,-0.018392265,-0.004421353,-0.025129378,0.14022094,-0.043411583,-0.029029628,0.2178021,-1.331071479,0.109663243
-0.948453784,-0.216084167,-0.231825903,-0.018392265,-0.004421353,-0.025129378,0.14022094,-0.043411583,-0.029029628,0.2178021,-1.331071479,0.109663243
-0.948453784,-0.216084167,-0.231825903,-0.018392265,-0.004421353,-0.025129378,0.14022094,-0.043411583,-0.029029628,0.2178021,-1.331071479,0.109663243
-0.948453784,-0.216084167,-0.231825903,-0.018392265,-0.004421353,-0.025129378,0.14022094,-0.043411583,-0.029029628,0.2178021,-1.331071479,0.109663243
-0.948581994,-0.217910409,-0.229580924,0.006180465,0.009260938,-0.015899718,0.15116781,-0.063384272,-0.060148612,0.219672914,-1.333337153,0.114382038
-0.948581994,-0.217910409,-0.229580924,0.006180465,0.009260938,-0.015899718,0.15116781,-0.063384272,-0.060148612,0.219672914,-1.333337153,0.114382038
-0.948581994,-0.217910409,-0.229580924,0.006180465,0.009260938,-0.015899718,0.15116781,-0.063384272,-0.060148612,0.219672914,-1.333337153,0.114382038
-0.948581994,-0.217910409,-0.229580924,0.006180465,0.009260938,-0.015899718,0.15116781,-0.063384272,-0.060148612,0.219672914,-1.333337153,0.114382038
-0.948581994,-0.217910409,-0.229580924,0.006180465,0.009260938,-0.015899718,0.15116781,-0.063384272,-0.060148612,0.219672914,-1.333337153,0.114382038
-0.948581994,-0.217910409,-0.229580924,0.006180465,0.009260938,-0.015899718,0.15116781,-0.063384272,-0.060148612,0.219672914,-1.333337153,0.114382038
-0.948578298,-0.220674023,-0.226941034,-0.001986861,0.005982026,0.01473999,0.093070805,-0.054144509,-0.005772721,0.222505478,-1.335966919,0.11985329
-0.948578298,-0.220674023,-0.226941034,-0.001986861,0.005982026,0.01473999,0.093070805,-0.054144509,-0.005772721,0.222505478,-1.335966919,0.11985329
-0.948578298,-0.220674023,-0.226941034,-0.001986861,0.005982026,0.01473999,0.093070805,-0.054144509,-0.005772721,0.222505478,-1.335966919,0.11985329
-0.948578298,-0.220674023,-0.226941034,-0.001986861,0.005982026,0.01473999,0.093070805,-0.054144509,-0.005772721,0.222505478,-1.335966919,0.11985329
-0.948578298,-0.220674023,-0.226941034,-0.001986861,0.005982026,0.01473999,0.093070805,-0.054144509,-0.005772721,0.222505478,-1.335966919,0.11985329
-0.948578298,-0.220674023,-0.226941034,-0.001986861,0.005982026,0.01473999,0.093070805,-0.054144509,-0.005772721,0.222505478,-1.335966919,0.11985329
-0.948578298,-0.220674023,-0.226941034,-0.001986861,0.005982026,0.01473999,0.093070805,-0.054144509,-0.005772721,0.222505478,-1.335966919,0.11985329
-0.948578298,-0.220674023,-0.226941034,-0.001986861,0.005982026,0.01473999,0.093070805,-0.054144509,-0.005772721,0.222505478,-1.335966919,0.11985329
-0.948578298,-0.220674023,-0.226941034,-0.001986861,0.005982026,0.01473999,0.093070805,-0.054144509,-0.005772721,0.222505478,-1.335966919,0.11985329
-0.951569557,-0.221171409,-0.213538498,-3.33E-05,-0.002614871,-0.012853026,0.018139493,-0.097552747,0.025330018,0.22301547,-1.350046759,0.128375854
-0.951569557,-0.221171409,-0.213538498,-3.33E-05,-0.002614871,-0.012853026,0.018139493,-0.097552747,0.025330018,0.22301547,-1.350046759,0.128375854
-0.951569557,-0.221171409,-0.213538498,-3.33E-05,-0.002614871,-0.012853026,0.018139493,-0.097552747,0.025330018,0.22301547,-1.350046759,0.128375854
-0.951569557,-0.221171409,-0.213538498,-3.33E-05,-0.002614871,-0.012853026,0.018139493,-0.097552747,0.025330018,0.22301547,-1.350046759,0.128375854
-0.951569557,-0.221171409,-0.213538498,-3.33E-05,-0.002614871,-0.012853026,0.018139493,-0.097552747,0.025330018,0.22301547,-1.350046759,0.128375854
-0.951569557,-0.221171409,-0.213538498,-3.33E-05,-0.002614871,-0.012853026,0.018139493,-0.097552747,0.025330018,0.22301547,-1.350046759,0.128375854
-0.957794011,-0.215950772,-0.189726129,-0.02884382,-0.047508463,-0.009733021,-0.033239674,-0.104712635,0.074703425,0.217665474,-1.375241276,0.148112161
-0.95885098,-0.212939426,-0.18778123,-0.024933934,-0.007734269,-0.018589616,-0.018463446,-0.037698545,0.025982279,0.214582399,-1.377404092,0.145660839
-0.95885098,-0.212939426,-0.18778123,-0.024933934,-0.007734269,-0.018589616,-0.018463446,-0.037698545,0.025982279,0.214582399,-1.377404092,0.145660839
-0.95885098,-0.212939426,-0.18778123,-0.024933934,-0.007734269,-0.018589616,-0.018463446,-0.037698545,0.025982279,0.214582399,-1.377404092,0.145660839
-0.95885098,-0.212939426,-0.18778123,-0.024933934,-0.007734269,-0.018589616,-0.018463446,-0.037698545,0.025982279,0.214582399,-1.377404092,0.145660839
-0.95885098,-0.212939426,-0.18778123,-0.024933934,-0.007734269,-0.018589616,-0.018463446,-0.037698545,0.025982279,0.214582399,-1.377404092,0.145660839
-0.95885098,-0.212939426,-0.18778123,-0.024933934,-0.007734269,-0.018589616,-0.018463446,-0.037698545,0.025982279,0.214582399,-1.377404092,0.145660839
-0.95885098,-0.212939426,-0.18778123,-0.024933934,-0.007734269,-0.018589616,-0.018463446,-0.037698545,0.025982279,0.214582399,-1.377404092,0.145660839
-0.95885098,-0.212939426,-0.18778123,-0.024933934,-0.007734269,-0.018589616,-0.018463446,-0.037698545,0.025982279,0.214582399,-1.377404092,0.145660839
-0.95885098,-0.212939426,-0.18778123,-0.024933934,-0.007734269,-0.018589616,-0.018463446,-0.037698545,0.025982279,0.214582399,-1.377404092,0.145660839
-0.95885098,-0.212939426,-0.18778123,-0.024933934,-0.007734269,-0.018589616,-0.018463446,-0.037698545,0.025982279,0.214582399,-1.377404092,0.145660839
-0.95885098,-0.212939426,-0.18778123,-0.024933934,-0.007734269,-0.018589616,-0.018463446,-0.037698545,0.025982279,0.214582399,-1.377404092,0.145660839
-0.958588958,-0.213870868,-0.18806015,-0.02049607,-0.005643144,-0.035354972,0.016442979,0.017779868,-0.040106036,0.215535801,-1.377072345,0.145820706
-0.958588958,-0.213870868,-0.18806015,-0.02049607,-0.005643144,-0.035354972,0.016442979,0.017779868,-0.040106036,0.215535801,-1.377072345,0.145820706
-0.958588958,-0.213870868,-0.18806015,-0.02049607,-0.005643144,-0.035354972,0.016442979,0.017779868,-0.040106036,0.215535801,-1.377072345,0.145820706
-0.958588958,-0.213870868,-0.18806015,-0.02049607,-0.005643144,-0.035354972,0.016442979,0.017779868,-0.040106036,0.215535801,-1.377072345,0.145820706
-0.958588958,-0.213870868,-0.18806015,-0.02049607,-0.005643144,-0.035354972,0.016442979,0.017779868,-0.040106036,0.215535801,-1.377072345,0.145820706
-0.957526505,-0.216126576,-0.190872744,-0.021466672,-0.010818392,-0.014262676,-0.127530202,0.0978802,-0.063208796,0.217845523,-1.374036043,0.143207398
-0.957526505,-0.216126576,-0.190872744,-0.021466672,-0.010818392,-0.014262676,-0.127530202,0.0978802,-0.063208796,0.217845523,-1.374036043,0.143207398
-0.957526505,-0.216126576,-0.190872744,-0.021466672,-0.010818392,-0.014262676,-0.127530202,0.0978802,-0.063208796,0.217845523,-1.374036043,0.143207398
-0.957526505,-0.216126576,-0.190872744,-0.021466672,-0.010818392,-0.014262676,-0.127530202,0.0978802,-0.063208796,0.217845523,-1.374036043,0.143207398
-0.957526505,-0.216126576,-0.190872744,-0.021466672,-0.010818392,-0.014262676,-0.127530202,0.0978802,-0.063208796,0.217845523,-1.374036043,0.143207398
-0.957526505,-0.216126576,-0.190872744,-0.021466672,-0.010818392,-0.014262676,-0.127530202,0.0978802,-0.063208796,0.217845523,-1.374036043,0.143207398
-0.957526505,-0.216126576,-0.190872744,-0.021466672,-0.010818392,-0.014262676,-0.127530202,0.0978802,-0.063208796,0.217845523,-1.374036043,0.143207398
-0.957526505,-0.216126576,-0.190872744,-0.021466672,-0.010818392,-0.014262676,-0.127530202,0.0978802,-0.063208796,0.217845523,-1.374036043,0.143207398
-0.957526505,-0.216126576,-0.190872744,-0.021466672,-0.010818392,-0.014262676,-0.127530202,0.0978802,-0.063208796,0.217845523,-1.374036043,0.143207398
-0.955709457,-0.219033688,-0.196580067,0.010605514,0.035240427,0.000936091,0.080163911,0.127556354,-0.128835052,0.220824003,-1.36793545,0.140305753
-0.955709457,-0.219033688,-0.196580067,0.010605514,0.035240427,0.000936091,0.080163911,0.127556354,-0.128835052,0.220824003,-1.36793545,0.140305753
-0.955709457,-0.219033688,-0.196580067,0.010605514,0.035240427,0.000936091,0.080163911,0.127556354,-0.128835052,0.220824003,-1.36793545,0.140305753
-0.955709457,-0.219033688,-0.196580067,0.010605514,0.035240427,0.000936091,0.080163911,0.127556354,-0.128835052,0.220824003,-1.36793545,0.140305753
-0.955709457,-0.219033688,-0.196580067,0.010605514,0.035240427,0.000936091,0.080163911,0.127556354,-0.128835052,0.220824003,-1.36793545,0.140305753
-0.955709457,-0.219033688,-0.196580067,0.010605514,0.035240427,0.000936091,0.080163911,0.127556354,-0.128835052,0.220824003,-1.36793545,0.140305753
-0.955709457,-0.219033688,-0.196580067,0.010605514,0.035240427,0.000936091,0.080163911,0.127556354,-0.128835052,0.220824003,-1.36793545,0.140305753
-0.955709457,-0.219033688,-0.196580067,0.010605514,0.035240427,0.000936091,0.080163911,0.127556354,-0.128835052,0.220824003,-1.36793545,0.140305753
-0.955709457,-0.219033688,-0.196580067,0.010605514,0.035240427,0.000936091,0.080163911,0.127556354,-0.128835052,0.220824003,-1.36793545,0.140305753
-0.951159537,-0.232061848,-0.203575581,0.024228811,0.006764635,0.010846078,0.283740461,0.12664327,-0.173433468,0.234196868,-1.35994859,0.155626533
-0.949179053,-0.236370876,-0.207817405,0.018556118,-0.061054558,-0.003940165,-0.3031452,0.121126056,-0.085372321,0.238629179,-1.35525314,0.154036674
-0.949179053,-0.236370876,-0.207817405,0.018556118,-0.061054558,-0.003940165,-0.3031452,0.121126056,-0.085372321,0.238629179,-1.35525314,0.154036674
-0.94776845,-0.23622334,-0.21432136,0.012217402,0.026139304,0.017806828,-0.175136045,0.093499266,-0.081205852,0.238477343,-1.348404106,0.140883108
-0.94776845,-0.23622334,-0.21432136,0.012217402,0.026139304,0.017806828,-0.175136045,0.093499266,-0.081205852,0.238477343,-1.348404106,0.140883108
-0.94776845,-0.23622334,-0.21432136,0.012217402,0.026139304,0.017806828,-0.175136045,0.093499266,-0.081205852,0.238477343,-1.348404106,0.140883108
-0.94776845,-0.23622334,-0.21432136,0.012217402,0.026139304,0.017806828,-0.175136045,0.093499266,-0.081205852,0.238477343,-1.348404106,0.140883108
-0.94776845,-0.23622334,-0.21432136,0.012217402,0.026139304,0.017806828,-0.175136045,0.093499266,-0.081205852,0.238477343,-1.348404106,0.140883108
-0.94776845,-0.23622334,-0.21432136,0.012217402,0.026139304,0.017806828,-0.175136045,0.093499266,-0.081205852,0.238477343,-1.348404106,0.140883108
-0.94776845,-0.23622334,-0.21432136,0.012217402,0.026139304,0.017806828,-0.175136045,0.093499266,-0.081205852,0.238477343,-1.348404106,0.140883108
-0.94776845,-0.23622334,-0.21432136,0.012217402,0.026139304,0.017806828,-0.175136045,0.093499266,-0.081205852,0.238477343,-1.348404106,0.140883108
-0.94776845,-0.23622334,-0.21432136,0.012217402,0.026139304,0.017806828,-0.175136045,0.093499266,-0.081205852,0.238477343,-1.348404106,0.140883108
-0.946034193,-0.243322596,-0.214040935,0.026672363,0.07886225,0.030969739,0.510798514,-0.032880973,-0.132889986,0.245789942,-1.348291729,0.145515567
-0.946034193,-0.243322596,-0.214040935,0.026672363,0.07886225,0.030969739,0.510798514,-0.032880973,-0.132889986,0.245789942,-1.348291729,0.145515567
-0.946034193,-0.243322596,-0.214040935,0.026672363,0.07886225,0.030969739,0.510798514,-0.032880973,-0.132889986,0.245789942,-1.348291729,0.145515567
-0.946034193,-0.243322596,-0.214040935,0.026672363,0.07886225,0.030969739,0.510798514,-0.032880973,-0.132889986,0.245789942,-1.348291729,0.145515567
-0.946034193,-0.243322596,-0.214040935,0.026672363,0.07886225,0.030969739,0.510798514,-0.032880973,-0.132889986,0.245789942,-1.348291729,0.145515567
-0.946034193,-0.243322596,-0.214040935,0.026672363,0.07886225,0.030969739,0.510798514,-0.032880973,-0.132889986,0.245789942,-1.348291729,0.145515567
-0.946034193,-0.243322596,-0.214040935,0.026672363,0.07886225,0.030969739,0.510798514,-0.032880973,-0.132889986,0.245789942,-1.348291729,0.145515567
-0.946034193,-0.243322596,-0.214040935,0.026672363,0.07886225,0.030969739,0.510798514,-0.032880973,-0.132889986,0.245789942,-1.348291729,0.145515567
-0.946034193,-0.243322596,-0.214040935,0.026672363,0.07886225,0.030969739,0.510798514,-0.032880973,-0.132889986,0.245789942,-1.348291729,0.145515567
-0.946034193,-0.243322596,-0.214040935,0.026672363,0.07886225,0.030969739,0.510798514,-0.032880973,-0.132889986,0.245789942,-1.348291729,0.145515567
-0.946034193,-0.243322596,-0.214040935,0.026672363,0.07886225,0.030969739,0.510798514,-0.032880973,-0.132889986,0.245789942,-1.348291729,0.145515567
-0.946034193,-0.243322596,-0.214040935,0.026672363,0.07886225,0.030969739,0.510798514,-0.032880973,-0.132889986,0.245789942,-1.348291729,0.145515567
-0.946034193,-0.243322596,-0.214040935,0.026672363,0.07886225,0.030969739,0.510798514,-0.032880973,-0.132889986,0.245789942,-1.348291729,0.145515567
-0.946034193,-0.243322596,-0.214040935,0.026672363,0.07886225,0.030969739,0.510798514,-0.032880973,-0.132889986,0.245789942,-1.348291729,0.145515567
-0.946034193,-0.243322596,-0.214040935,0.026672363,0.07886225,0.030969739,0.510798514,-0.032880973,-0.132889986,0.245789942,-1.348291729,0.145515567
-0.946034193,-0.243322596,-0.214040935,0.026672363,0.07886225,0.030969739,0.510798514,-0.032880973,-0.132889986,0.245789942,-1.348291729,0.145515567
-0.946034193,-0.243322596,-0.214040935,0.026672363,0.07886225,0.030969739,0.510798514,-0.032880973,-0.132889986,0.245789942,-1.348291729,0.145515567
-0.946034193,-0.243322596,-0.214040935,0.026672363,0.07886225,0.030969739,0.510798514,-0.032880973,-0.132889986,0.245789942,-1.348291729,0.145515567
-0.94588393,-0.249770448,-0.207167774,-0.006177604,-0.025102586,0.025958359,0.088259496,-0.048908725,0.001173708,0.252443179,-1.3551807,0.161553336
-0.94588393,-0.249770448,-0.207167774,-0.006177604,-0.025102586,0.025958359,0.088259496,-0.048908725,0.001173708,0.252443179,-1.3551807,0.161553336
-0.94588393,-0.249770448,-0.207167774,-0.006177604,-0.025102586,0.025958359,0.088259496,-0.048908725,0.001173708,0.252443179,-1.3551807,0.161553336
-0.94588393,-0.249770448,-0.207167774,-0.006177604,-0.025102586,0.025958359,0.088259496,-0.048908725,0.001173708,0.252443179,-1.3551807,0.161553336
-0.94588393,-0.249770448,-0.207167774,-0.006177604,-0.025102586,0.025958359,0.088259496,-0.048908725,0.001173708,0.252443179,-1.3551807,0.161553336
-0.94588393,-0.249770448,-0.207167774,-0.006177604,-0.025102586,0.025958359,0.088259496,-0.048908725,0.001173708,0.252443179,-1.3551807,0.161553336
-0.94588393,-0.249770448,-0.207167774,-0.006177604,-0.025102586,0.025958359,0.088259496,-0.048908725,0.001173708,0.252443179,-1.3551807,0.161553336
-0.94588393,-0.249770448,-0.207167774,-0.006177604,-0.025102586,0.025958359,0.088259496,-0.048908725,0.001173708,0.252443179,-1.3551807,0.161553336
-0.94588393,-0.249770448,-0.207167774,-0.006177604,-0.025102586,0.025958359,0.088259496,-0.048908725,0.001173708,0.252443179,-1.3551807,0.161553336
-0.946979642,-0.247353747,-0.205050617,0.004134417,0.037193239,0.018561602,0.130498275,-0.038763143,-0.030611493,0.249948174,-1.357557114,0.162016003
-0.946979642,-0.247353747,-0.205050617,0.004134417,0.037193239,0.018561602,0.130498275,-0.038763143,-0.030611493,0.249948174,-1.357557114,0.162016003
-0.946979642,-0.247353747,-0.205050617,0.004134417,0.037193239,0.018561602,0.130498275,-0.038763143,-0.030611493,0.249948174,-1.357557114,0.162016003
-0.946979642,-0.247353747,-0.205050617,0.004134417,0.037193239,0.018561602,0.130498275,-0.038763143,-0.030611493,0.249948174,-1.357557114,0.162016003
-0.946979642,-0.247353747,-0.205050617,0.004134417,0.037193239,0.018561602,0.130498275,-0.038763143,-0.030611493,0.249948174,-1.357557114,0.162016003
-0.946979642,-0.247353747,-0.205050617,0.004134417,0.037193239,0.018561602,0.130498275,-0.038763143,-0.030611493,0.249948174,-1.357557114,0.162016003
-0.947153747,-0.249624699,-0.201463595,-0.017297983,-0.000742748,-0.000177324,0.173784852,-0.007009367,-0.056887463,0.252292669,-1.361215544,0.169815414
-0.947153747,-0.249624699,-0.201463595,-0.017297983,-0.000742748,-0.000177324,0.173784852,-0.007009367,-0.056887463,0.252292669,-1.361215544,0.169815414
-0.947153747,-0.249624699,-0.201463595,-0.017297983,-0.000742748,-0.000177324,0.173784852,-0.007009367,-0.056887463,0.252292669,-1.361215544,0.169815414
-0.947153747,-0.249624699,-0.201463595,-0.017297983,-0.000742748,-0.000177324,0.173784852,-0.007009367,-0.056887463,0.252292669,-1.361215544,0.169815414
-0.947153747,-0.249624699,-0.201463595,-0.017297983,-0.000742748,-0.000177324,0.173784852,-0.007009367,-0.056887463,0.252292669,-1.361215544,0.169815414
-0.947153747,-0.249624699,-0.201463595,-0.017297983,-0.000742748,-0.000177324,0.173784852,-0.007009367,-0.056887463,0.252292669,-1.361215544,0.169815414
-0.947153747,-0.249624699,-0.201463595,-0.017297983,-0.000742748,-0.000177324,0.173784852,-0.007009367,-0.056887463,0.252292669,-1.361215544,0.169815414
-0.947153747,-0.249624699,-0.201463595,-0.017297983,-0.000742748,-0.000177324,0.173784852,-0.007009367,-0.056887463,0.252292669,-1.361215544,0.169815414
-0.947153747,-0.249624699,-0.201463595,-0.017297983,-0.000742748,-0.000177324,0.173784852,-0.007009367,-0.056887463,0.252292669,-1.361215544,0.169815414
-0.947614074,-0.239755958,-0.211056203,0.016671002,0.042977527,-0.01614356,-0.224519357,0.061110344,0.001523754,0.242114474,-1.351649459,0.141661364
-0.947614074,-0.239755958,-0.211056203,0.016671002,0.042977527,-0.01614356,-0.224519357,0.061110344,0.001523754,0.242114474,-1.351649459,0.141661364
-0.947614074,-0.239755958,-0.211056203,0.016671002,0.042977527,-0.01614356,-0.224519357,0.061110344,0.001523754,0.242114474,-1.351649459,0.141661364
-0.947614074,-0.239755958,-0.211056203,0.016671002,0.042977527,-0.01614356,-0.224519357,0.061110344,0.001523754,0.242114474,-1.351649459,0.141661364
-0.947614074,-0.239755958,-0.211056203,0.016671002,0.042977527,-0.01614356,-0.224519357,0.061110344,0.001523754,0.242114474,-1.351649459,0.141661364
-0.947614074,-0.239755958,-0.211056203,0.016671002,0.042977527,-0.01614356,-0.224519357,0.061110344,0.001523754,0.242114474,-1.351649459,0.141661364
-0.947614074,-0.239755958,-0.211056203,0.016671002,0.042977527,-0.01614356,-0.224519357,0.061110344,0.001523754,0.242114474,-1.351649459,0.141661364
-0.947614074,-0.239755958,-0.211056203,0.016671002,0.042977527,-0.01614356,-0.224519357,0.061110344,0.001523754,0.242114474,-1.351649459,0.141661364
-0.947614074,-0.239755958,-0.211056203,0.016671002,0.042977527,-0.01614356,-0.224519357,0.061110344,0.001523754,0.242114474,-1.351649459,0.141661364
-0.946593881,-0.242153153,-0.212889493,0.015116632,0.024225995,-0.02036792,-0.095625624,0.016377531,0.011513539,0.244584433,-1.349576524,0.139726319
-0.946593881,-0.242153153,-0.212889493,0.015116632,0.024225995,-0.02036792,-0.095625624,0.016377531,0.011513539,0.244584433,-1.349576524,0.139726319
-0.946593881,-0.242153153,-0.212889493,0.015116632,0.024225995,-0.02036792,-0.095625624,0.016377531,0.011513539,0.244584433,-1.349576524,0.139726319
-0.946593881,-0.242153153,-0.212889493,0.015116632,0.024225995,-0.02036792,-0.095625624,0.016377531,0.011513539,0.244584433,-1.349576524,0.139726319
-0.946593881,-0.242153153,-0.212889493,0.015116632,0.024225995,-0.02036792,-0.095625624,0.016377531,0.011513539,0.244584433,-1.349576524,0.139726319
-0.946593881,-0.242153153,-0.212889493,0.015116632,0.024225995,-0.02036792,-0.095625624,0.016377531,0.011513539,0.244584433,-1.349576524,0.139726319
-0.946593881,-0.242153153,-0.212889493,0.015116632,0.024225995,-0.02036792,-0.095625624,0.016377531,0.011513539,0.244584433,-1.349576524,0.139726319
-0.946593881,-0.242153153,-0.212889493,0.015116632,0.024225995,-0.02036792,-0.095625624,0.016377531,0.011513539,0.244584433,-1.349576524,0.139726319
-0.946593881,-0.242153153,-0.212889493,0.015116632,0.024225995,-0.02036792,-0.095625624,0.016377531,0.011513539,0.244584433,-1.349576524,0.139726319
-0.946593881,-0.242153153,-0.212889493,0.015116632,0.024225995,-0.02036792,-0.095625624,0.016377531,0.011513539,0.244584433,-1.349576524,0.139726319
-0.946593881,-0.242153153,-0.212889493,0.015116632,0.024225995,-0.02036792,-0.095625624,0.016377531,0.011513539,0.244584433,-1.349576524,0.139726319
-0.946593881,-0.242153153,-0.212889493,0.015116632,0.024225995,-0.02036792,-0.095625624,0.016377531,0.011513539,0.244584433,-1.349576524,0.139726319
-0.946593881,-0.242153153,-0.212889493,0.015116632,0.024225995,-0.02036792,-0.095625624,0.016377531,0.011513539,0.244584433,-1.349576524,0.139726319
-0.946593881,-0.242153153,-0.212889493,0.015116632,0.024225995,-0.02036792,-0.095625624,0.016377531,0.011513539,0.244584433,-1.349576524,0.139726319
-0.946593881,-0.242153153,-0.212889493,0.015116632,0.024225995,-0.02036792,-0.095625624,0.016377531,0.011513539,0.244584433,-1.349576524,0.139726319
-0.946593881,-0.242153153,-0.212889493,0.015116632,0.024225995,-0.02036792,-0.095625624,0.016377531,0.011513539,0.244584433,-1.349576524,0.139726319
-0.946593881,-0.242153153,-0.212889493,0.015116632,0.024225995,-0.02036792,-0.095625624,0.016377531,0.011513539,0.244584433,-1.349576524,0.139726319
-0.947022736,-0.230556414,-0.223588541,-0.012255907,-0.167348087,-0.032847166,-1.364481807,0.075849697,0.192744151,0.232649462,-1.338945715,0.105706276
-0.947022736,-0.230556414,-0.223588541,-0.012255907,-0.167348087,-0.032847166,-1.364481807,0.075849697,0.192744151,0.232649462,-1.338945715,0.105706276
-0.947022736,-0.230556414,-0.223588541,-0.012255907,-0.167348087,-0.032847166,-1.364481807,0.075849697,0.192744151,0.232649462,-1.338945715,0.105706276
-0.947022736,-0.230556414,-0.223588541,-0.012255907,-0.167348087,-0.032847166,-1.364481807,0.075849697,0.192744151,0.232649462,-1.338945715,0.105706276
-0.947022736,-0.230556414,-0.223588541,-0.012255907,-0.167348087,-0.032847166,-1.364481807,0.075849697,0.192744151,0.232649462,-1.338945715,0.105706276
-0.947022736,-0.230556414,-0.223588541,-0.012255907,-0.167348087,-0.032847166,-1.364481807,0.075849697,0.192744151,0.232649462,-1.338945715,0.105706276
-0.947022736,-0.230556414,-0.223588541,-0.012255907,-0.167348087,-0.032847166,-1.364481807,0.075849697,0.192744151,0.232649462,-1.338945715,0.105706276
-0.947022736,-0.230556414,-0.223588541,-0.012255907,-0.167348087,-0.032847166,-1.364481807,0.075849697,0.192744151,0.232649462,-1.338945715,0.105706276
-0.947022736,-0.230556414,-0.223588541,-0.012255907,-0.167348087,-0.032847166,-1.364481807,0.075849697,0.192744151,0.232649462,-1.338945715,0.105706276
-0.947022736,-0.230556414,-0.223588541,-0.012255907,-0.167348087,-0.032847166,-1.364481807,0.075849697,0.192744151,0.232649462,-1.338945715,0.105706276
-0.947022736,-0.230556414,-0.223588541,-0.012255907,-0.167348087,-0.032847166,-1.364481807,0.075849697,0.192744151,0.232649462,-1.338945715,0.105706276
-0.947022736,-0.230556414,-0.223588541,-0.012255907,-0.167348087,-0.032847166,-1.364481807,0.075849697,0.192744151,0.232649462,-1.338945715,0.105706276
-0.947011411,-0.216673315,-0.237112343,-0.009551108,0.086972669,0.069482744,-0.439367235,0.205382302,-0.050925978,0.218405545,-1.325460421,0.06445402
-0.947011411,-0.216673315,-0.237112343,-0.009551108,0.086972669,0.069482744,-0.439367235,0.205382302,-0.050925978,0.218405545,-1.325460421,0.06445402
-0.947011411,-0.216673315,-0.237112343,-0.009551108,0.086972669,0.069482744,-0.439367235,0.205382302,-0.050925978,0.218405545,-1.325460421,0.06445402
-0.947011411,-0.216673315,-0.237112343,-0.009551108,0.086972669,0.069482744,-0.439367235,0.205382302,-0.050925978,0.218405545,-1.325460421,0.06445402
-0.947011411,-0.216673315,-0.237112343,-0.009551108,0.086972669,0.069482744,-0.439367235,0.205382302,-0.050925978,0.218405545,-1.325460421,0.06445402
-0.947011411,-0.216673315,-0.237112343,-0.009551108,0.086972669,0.069482744,-0.439367235,0.205382302,-0.050925978,0.218405545,-1.325460421,0.06445402
-0.945907354,-0.218861461,-0.239497498,0.035319746,0.067356005,-0.015793979,0.406973034,-0.08042118,-0.054370247,0.220647486,-1.32281437,0.061859392
-0.945907354,-0.218861461,-0.239497498,0.035319746,0.067356005,-0.015793979,0.406973034,-0.08042118,-0.054370247,0.220647486,-1.32281437,0.061859392
-0.945907354,-0.218861461,-0.239497498,0.035319746,0.067356005,-0.015793979,0.406973034,-0.08042118,-0.054370247,0.220647486,-1.32281437,0.061859392
-0.945907354,-0.218861461,-0.239497498,0.035319746,0.067356005,-0.015793979,0.406973034,-0.08042118,-0.054370247,0.220647486,-1.32281437,0.061859392
-0.945907354,-0.218861461,-0.239497498,0.035319746,0.067356005,-0.015793979,0.406973034,-0.08042118,-0.054370247,0.220647486,-1.32281437,0.061859392
-0.945907354,-0.218861461,-0.239497498,0.035319746,0.067356005,-0.015793979,0.406973034,-0.08042118,-0.054370247,0.220647486,-1.32281437,0.061859392
-0.944884956,-0.221857622,-0.240773082,-0.007847488,-0.187521398,-0.006492257,-0.398731023,0.1122787,0.08559341,0.223719155,-1.321288838,0.066321336
-0.944884956,-0.221857622,-0.240773082,-0.007847488,-0.187521398,-0.006492257,-0.398731023,0.1122787,0.08559341,0.223719155,-1.321288838,0.066321336
-0.944884956,-0.221857622,-0.240773082,-0.007847488,-0.187521398,-0.006492257,-0.398731023,0.1122787,0.08559341,0.223719155,-1.321288838,0.066321336
-0.944884956,-0.221857622,-0.240773082,-0.007847488,-0.187521398,-0.006492257,-0.398731023,0.1122787,0.08559341,0.223719155,-1.321288838,0.066321336
-0.944884956,-0.221857622,-0.240773082,-0.007847488,-0.187521398,-0.006492257,-0.398731023,0.1122787,0.08559341,0.223719155,-1.321288838,0.066321336
-0.944884956,-0.221857622,-0.240773082,-0.007847488,-0.187521398,-0.006492257,-0.398731023,0.1122787,0.08559341,0.223719155,-1.321288838,0.066321336
-0.944884956,-0.221857622,-0.240773082,-0.007847488,-0.187521398,-0.006492257,-0.398731023,0.1122787,0.08559341,0.223719155,-1.321288838,0.066321336
-0.944884956,-0.221857622,-0.240773082,-0.007847488,-0.187521398,-0.006492257,-0.398731023,0.1122787,0.08559341,0.223719155,-1.321288838,0.066321336
-0.944884956,-0.221857622,-0.240773082,-0.007847488,-0.187521398,-0.006492257,-0.398731023,0.1122787,0.08559341,0.223719155,-1.321288838,0.066321336
-0.944070637,-0.21845004,-0.24700281,0.012425482,0.070820242,0.002453804,0.025175843,0.08574564,-0.063392609,0.220225861,-1.314896518,0.055616743
-0.944070637,-0.21845004,-0.24700281,0.012425482,0.070820242,0.002453804,0.025175843,0.08574564,-0.063392609,0.220225861,-1.314896518,0.055616743
-0.944070637,-0.21845004,-0.24700281,0.012425482,0.070820242,0.002453804,0.025175843,0.08574564,-0.063392609,0.220225861,-1.314896518,0.055616743
-0.944070637,-0.21845004,-0.24700281,0.012425482,0.070820242,0.002453804,0.025175843,0.08574564,-0.063392609,0.220225861,-1.314896518,0.055616743
-0.944070637,-0.21845004,-0.24700281,0.012425482,0.070820242,0.002453804,0.025175843,0.08574564,-0.063392609,0.220225861,-1.314896518,0.055616743
-0.944070637,-0.21845004,-0.24700281,0.012425482,0.070820242,0.002453804,0.025175843,0.08574564,-0.063392609,0.220225861,-1.314896518,0.055616743