gravityX,gravityY,gravityZ,accelX,accelY,accelZ,rotRateX,rotRatY,rotRateZ,attPitch,attRoll,attYaw
-0.133542985,-0.146702245,-0.980124831,-0.009263992,-0.033351421,0.005027175,0.190769434,0.026813857,0.014234968,0.147233623,-0.135417119,0.011671087
-0.134652972,-0.155077815,-0.978682518,0.009210497,-0.069516256,0.00385952,-0.054066554,0.036973126,0.043144591,0.155706217,-0.136727532,0.014219837
-0.134652972,-0.155077815,-0.978682518,0.009210497,-0.069516256,0.00385952,-0.054066554,0.036973126,0.043144591,0.155706217,-0.136727532,0.014219837
-0.134685606,-0.155825108,-0.978559315,0.016201183,-0.040555432,0.018583119,-0.079415716,0.01457623,0.017491164,0.156462706,-0.136777261,0.014614055
-0.134685606,-0.155825108,-0.978559315,0.016201183,-0.040555432,0.018583119,-0.079415716,0.01457623,0.017491164,0.156462706,-0.136777261,0.014614055
-0.134685606,-0.155825108,-0.978559315,0.016201183,-0.040555432,0.018583119,-0.079415716,0.01457623,0.017491164,0.156462706,-0.136777261,0.014614055
-0.134159282,-0.159148321,-0.978096664,0.005634591,0.004866824,0.011772811,0.014297616,0.019582249,0.011289831,0.159827917,-0.136313011,0.015013431
-0.134159282,-0.159148321,-0.978096664,0.005634591,0.004866824,0.011772811,0.014297616,0.019582249,0.011289831,0.159827917,-0.136313011,0.015013431
-0.134159282,-0.159148321,-0.978096664,0.005634591,0.004866824,0.011772811,0.014297616,0.019582249,0.011289831,0.159827917,-0.136313011,0.015013431
-0.131658927,-0.173030019,-0.976077139,0.00232552,-0.000996336,-0.002209663,0.128883377,0.001610982,0.01057424,0.173905261,-0.13407655,0.017508613
-0.131658927,-0.173030019,-0.976077139,0.00232552,-0.000996336,-0.002209663,0.128883377,0.001610982,0.01057424,0.173905261,-0.13407655,0.017508613
-0.131658927,-0.173030019,-0.976077139,0.00232552,-0.000996336,-0.002209663,0.128883377,0.001610982,0.01057424,0.173905261,-0.13407655,0.017508613
-0.131557003,-0.174614102,-0.97580874,-0.000797644,0.015327737,-0.010427833,0.221285284,-0.001328385,0.013096787,0.175513829,-0.134010404,0.018192277
-0.131557003,-0.174614102,-0.97580874,-0.000797644,0.015327737,-0.010427833,0.221285284,-0.001328385,0.013096787,0.175513829,-0.134010404,0.018192277
-0.131557003,-0.174614102,-0.97580874,-0.000797644,0.015327737,-0.010427833,0.221285284,-0.001328385,0.013096787,0.175513829,-0.134010404,0.018192277
-0.131557003,-0.174614102,-0.97580874,-0.000797644,0.015327737,-0.010427833,0.221285284,-0.001328385,0.013096787,0.175513829,-0.134010404,0.018192277
-0.131557003,-0.174614102,-0.97580874,-0.000797644,0.015327737,-0.010427833,0.221285284,-0.001328385,0.013096787,0.175513829,-0.134010404,0.018192277
-0.131557003,-0.174614102,-0.97580874,-0.000797644,0.015327737,-0.010427833,0.221285284,-0.001328385,0.013096787,0.175513829,-0.134010404,0.018192277
-0.131557003,-0.174614102,-0.97580874,-0.000797644,0.015327737,-0.010427833,0.221285284,-0.001328385,0.013096787,0.175513829,-0.134010404,0.018192277
-0.131557003,-0.174614102,-0.97580874,-0.000797644,0.015327737,-0.010427833,0.221285284,-0.001328385,0.013096787,0.175513829,-0.134010404,0.018192277
-0.131659329,-0.179820493,-0.974848926,-8.67E-06,0.033702463,-0.015950024,0.347189277,-0.009297786,0.012443725,0.18080396,-0.134243854,0.019192905
-0.131659329,-0.179820493,-0.974848926,-8.67E-06,0.033702463,-0.015950024,0.347189277,-0.009297786,0.012443725,0.18080396,-0.134243854,0.019192905
-0.131659329,-0.179820493,-0.974848926,-8.67E-06,0.033702463,-0.015950024,0.347189277,-0.009297786,0.012443725,0.18080396,-0.134243854,0.019192905
-0.131659329,-0.179820493,-0.974848926,-8.67E-06,0.033702463,-0.015950024,0.347189277,-0.009297786,0.012443725,0.18080396,-0.134243854,0.019192905
-0.131659329,-0.179820493,-0.974848926,-8.67E-06,0.033702463,-0.015950024,0.347189277,-0.009297786,0.012443725,0.18080396,-0.134243854,0.019192905
-0.131659329,-0.179820493,-0.974848926,-8.67E-06,0.033702463,-0.015950024,0.347189277,-0.009297786,0.012443725,0.18080396,-0.134243854,0.019192905
-0.131659329,-0.179820493,-0.974848926,-8.67E-06,0.033702463,-0.015950024,0.347189277,-0.009297786,0.012443725,0.18080396,-0.134243854,0.019192905
-0.131846562,-0.187721789,-0.973332942,-0.002568021,0.030647963,-0.00170368,0.384393543,0.010770138,0.018796591,0.188842179,-0.134639333,0.02059874
-0.131846562,-0.187721789,-0.973332942,-0.002568021,0.030647963,-0.00170368,0.384393543,0.010770138,0.018796591,0.188842179,-0.134639333,0.02059874
-0.131846562,-0.187721789,-0.973332942,-0.002568021,0.030647963,-0.00170368,0.384393543,0.010770138,0.018796591,0.188842179,-0.134639333,0.02059874
-0.131248727,-0.194058165,-0.972170353,-0.012977287,-0.007479817,0.033632755,0.304239631,0.052253895,0.048681945,0.195297274,-0.134194516,0.022233258
-0.131248727,-0.194058165,-0.972170353,-0.012977287,-0.007479817,0.033632755,0.304239631,0.052253895,0.048681945,0.195297274,-0.134194516,0.022233258
-0.131248727,-0.194058165,-0.972170353,-0.012977287,-0.007479817,0.033632755,0.304239631,0.052253895,0.048681945,0.195297274,-0.134194516,0.022233258
-0.131248727,-0.194058165,-0.972170353,-0.012977287,-0.007479817,0.033632755,0.304239631,0.052253895,0.048681945,0.195297274,-0.134194516,0.022233258
-0.131248727,-0.194058165,-0.972170353,-0.012977287,-0.007479817,0.033632755,0.304239631,0.052253895,0.048681945,0.195297274,-0.134194516,0.022233258
-0.131248727,-0.194058165,-0.972170353,-0.012977287,-0.007479817,0.033632755,0.304239631,0.052253895,0.048681945,0.195297274,-0.134194516,0.022233258
-0.130596831,-0.196028054,-0.971862912,0.015240446,-0.066011012,0.046890318,0.093620025,0.01145963,0.003978229,0.197305739,-0.133577655,0.023450501
-0.130596831,-0.196028054,-0.971862912,0.015240446,-0.066011012,0.046890318,0.093620025,0.01145963,0.003978229,0.197305739,-0.133577655,0.023450501
-0.130596831,-0.196028054,-0.971862912,0.015240446,-0.066011012,0.046890318,0.093620025,0.01145963,0.003978229,0.197305739,-0.133577655,0.023450501
-0.130596831,-0.196028054,-0.971862912,0.015240446,-0.066011012,0.046890318,0.093620025,0.01145963,0.003978229,0.197305739,-0.133577655,0.023450501
-0.130596831,-0.196028054,-0.971862912,0.015240446,-0.066011012,0.046890318,0.093620025,0.01145963,0.003978229,0.197305739,-0.133577655,0.023450501
-0.13064459,-0.194488227,-0.972165763,0.004484981,-0.058395579,0.026120842,0.005555924,-0.013397831,-0.041131832,0.195735694,-0.133584772,0.023141643
-0.13064459,-0.194488227,-0.972165763,0.004484981,-0.058395579,0.026120842,0.005555924,-0.013397831,-0.041131832,0.195735694,-0.133584772,0.023141643
-0.13064459,-0.194488227,-0.972165763,0.004484981,-0.058395579,0.026120842,0.005555924,-0.013397831,-0.041131832,0.195735694,-0.133584772,0.023141643
-0.13064459,-0.194488227,-0.972165763,0.004484981,-0.058395579,0.026120842,0.005555924,-0.013397831,-0.041131832,0.195735694,-0.133584772,0.023141643
-0.13064459,-0.194488227,-0.972165763,0.004484981,-0.058395579,0.026120842,0.005555924,-0.013397831,-0.041131832,0.195735694,-0.133584772,0.023141643
-0.13064459,-0.194488227,-0.972165763,0.004484981,-0.058395579,0.026120842,0.005555924,-0.013397831,-0.041131832,0.195735694,-0.133584772,0.023141643
-0.130626857,-0.19231765,-0.972599924,0.004970789,-0.040577129,0.004948497,-0.045687608,0.012928751,-0.043582417,0.193523343,-0.133507947,0.022118748
-0.130626857,-0.19231765,-0.972599924,0.004970789,-0.040577129,0.004948497,-0.045687608,0.012928751,-0.043582417,0.193523343,-0.133507947,0.022118748
-0.130626857,-0.19231765,-0.972599924,0.004970789,-0.040577129,0.004948497,-0.045687608,0.012928751,-0.043582417,0.193523343,-0.133507947,0.022118748
-0.130626857,-0.19231765,-0.972599924,0.004970789,-0.040577129,0.004948497,-0.045687608,0.012928751,-0.043582417,0.193523343,-0.133507947,0.022118748
-0.130626857,-0.19231765,-0.972599924,0.004970789,-0.040577129,0.004948497,-0.045687608,0.012928751,-0.043582417,0.193523343,-0.133507947,0.022118748
-0.130917922,-0.191048458,-0.972810864,0.01279974,-0.0218115,0.004503369,-0.091330409,0.00780524,-0.027039448,0.192230162,-0.133773234,0.021377541
-0.130917922,-0.191048458,-0.972810864,0.01279974,-0.0218115,0.004503369,-0.091330409,0.00780524,-0.027039448,0.192230162,-0.133773234,0.021377541
-0.130917922,-0.191048458,-0.972810864,0.01279974,-0.0218115,0.004503369,-0.091330409,0.00780524,-0.027039448,0.192230162,-0.133773234,0.021377541
-0.130595535,-0.192131132,-0.972640932,0.006389111,-0.014808357,0.015212953,-0.104670852,0.010447073,-0.007203958,0.193333284,-0.133470749,0.020800332
-0.130595535,-0.192131132,-0.972640932,0.006389111,-0.014808357,0.015212953,-0.104670852,0.010447073,-0.007203958,0.193333284,-0.133470749,0.020800332
-0.130595535,-0.192131132,-0.972640932,0.006389111,-0.014808357,0.015212953,-0.104670852,0.010447073,-0.007203958,0.193333284,-0.133470749,0.020800332
-0.130595535,-0.192131132,-0.972640932,0.006389111,-0.014808357,0.015212953,-0.104670852,0.010447073,-0.007203958,0.193333284,-0.133470749,0.020800332
-0.130595535,-0.192131132,-0.972640932,0.006389111,-0.014808357,0.015212953,-0.104670852,0.010447073,-0.007203958,0.193333284,-0.133470749,0.020800332
-0.130595535,-0.192131132,-0.972640932,0.006389111,-0.014808357,0.015212953,-0.104670852,0.010447073,-0.007203958,0.193333284,-0.133470749,0.020800332
-0.130595535,-0.192131132,-0.972640932,0.006389111,-0.014808357,0.015212953,-0.104670852,0.010447073,-0.007203958,0.193333284,-0.133470749,0.020800332
-0.130595535,-0.192131132,-0.972640932,0.006389111,-0.014808357,0.015212953,-0.104670852,0.010447073,-0.007203958,0.193333284,-0.133470749,0.020800332
-0.130595535,-0.192131132,-0.972640932,0.006389111,-0.014808357,0.015212953,-0.104670852,0.010447073,-0.007203958,0.193333284,-0.133470749,0.020800332
-0.130093426,-0.19274959,-0.972585857,0.008114755,-0.020842791,0.017141521,-0.111978613,0.008612542,-0.010301427,0.193963515,-0.132971059,0.020332672
-0.130093426,-0.19274959,-0.972585857,0.008114755,-0.020842791,0.017141521,-0.111978613,0.008612542,-0.010301427,0.193963515,-0.132971059,0.020332672
-0.130093426,-0.19274959,-0.972585857,0.008114755,-0.020842791,0.017141521,-0.111978613,0.008612542,-0.010301427,0.193963515,-0.132971059,0.020332672
-0.130093426,-0.19274959,-0.972585857,0.008114755,-0.020842791,0.017141521,-0.111978613,0.008612542,-0.010301427,0.193963515,-0.132971059,0.020332672
-0.130093426,-0.19274959,-0.972585857,0.008114755,-0.020842791,0.017141521,-0.111978613,0.008612542,-0.010301427,0.193963515,-0.132971059,0.020332672
-0.130093426,-0.19274959,-0.972585857,0.008114755,-0.020842791,0.017141521,-0.111978613,0.008612542,-0.010301427,0.193963515,-0.132971059,0.020332672
-0.128929883,-0.190349728,-0.973213255,-0.001257926,-0.029056102,0.014411986,-0.098204359,-0.012397777,-0.016119689,0.191518383,-0.131711585,0.017660146
-0.128929883,-0.190349728,-0.973213255,-0.001257926,-0.029056102,0.014411986,-0.098204359,-0.012397777,-0.016119689,0.191518383,-0.131711585,0.017660146
-0.128929883,-0.190349728,-0.973213255,-0.001257926,-0.029056102,0.014411986,-0.098204359,-0.012397777,-0.016119689,0.191518383,-0.131711585,0.017660146
-0.129371986,-0.18599008,-0.973997235,0.002571642,0.015397102,0.017881453,-0.038127244,-0.013983919,-0.011680465,0.187079428,-0.132052865,0.015414017
-0.129371986,-0.18599008,-0.973997235,0.002571642,0.015397102,0.017881453,-0.038127244,-0.013983919,-0.011680465,0.187079428,-0.132052865,0.015414017
-0.129371986,-0.18599008,-0.973997235,0.002571642,0.015397102,0.017881453,-0.038127244,-0.013983919,-0.011680465,0.187079428,-0.132052865,0.015414017
-0.129371986,-0.18599008,-0.973997235,0.002571642,0.015397102,0.017881453,-0.038127244,-0.013983919,-0.011680465,0.187079428,-0.132052865,0.015414017
-0.129371986,-0.18599008,-0.973997235,0.002571642,0.015397102,0.017881453,-0.038127244,-0.013983919,-0.011680465,0.187079428,-0.132052865,0.015414017
-0.129371986,-0.18599008,-0.973997235,0.002571642,0.015397102,0.017881453,-0.038127244,-0.013983919,-0.011680465,0.187079428,-0.132052865,0.015414017
-0.129371986,-0.18599008,-0.973997235,0.002571642,0.015397102,0.017881453,-0.038127244,-0.013983919,-0.011680465,0.187079428,-0.132052865,0.015414017
-0.129371986,-0.18599008,-0.973997235,0.002571642,0.015397102,0.017881453,-0.038127244,-0.013983919,-0.011680465,0.187079428,-0.132052865,0.015414017
-0.129685447,-0.186724007,-0.973815084,-0.00469853,0.0129572,0.013106465,-0.000446575,-0.00970238,0.003514467,0.187826441,-0.132393558,0.015347906
-0.130068123,-0.190192282,-0.973092616,0.004854739,-0.006722018,0.01664114,0.003781685,-0.002612961,0.002126267,0.191357998,-0.132877084,0.017036145
-0.130269691,-0.190074638,-0.973088622,0.008596346,-0.005603701,0.015553772,-0.008458722,-0.006821954,-0.003886298,0.191238172,-0.133081123,0.017025975
-0.130269691,-0.190074638,-0.973088622,0.008596346,-0.005603701,0.015553772,-0.008458722,-0.006821954,-0.003886298,0.191238172,-0.133081123,0.017025975
-0.130269691,-0.190074638,-0.973088622,0.008596346,-0.005603701,0.015553772,-0.008458722,-0.006821954,-0.003886298,0.191238172,-0.133081123,0.017025975
-0.130269691,-0.190074638,-0.973088622,0.008596346,-0.005603701,0.015553772,-0.008458722,-0.006821954,-0.003886298,0.191238172,-0.133081123,0.017025975
-0.130481586,-0.190419033,-0.972992897,0.000797376,0.000310153,0.014359415,0.002387773,-0.009120842,-0.003807841,0.191588977,-0.133308005,0.016957757
-0.130481586,-0.190419033,-0.972992897,0.000797376,0.000310153,0.014359415,0.002387773,-0.009120842,-0.003807841,0.191588977,-0.133308005,0.016957757
-0.130481586,-0.190419033,-0.972992897,0.000797376,0.000310153,0.014359415,0.002387773,-0.009120842,-0.003807841,0.191588977,-0.133308005,0.016957757
-0.130819172,-0.192137867,-0.97260958,0.00052464,0.001998529,0.005629539,0.035994884,-0.005413033,0.013525128,0.193340137,-0.133700853,0.017364389
-0.130819172,-0.192137867,-0.97260958,0.00052464,0.001998529,0.005629539,0.035994884,-0.005413033,0.013525128,0.193340137,-0.133700853,0.017364389
-0.130819172,-0.192137867,-0.97260958,0.00052464,0.001998529,0.005629539,0.035994884,-0.005413033,0.013525128,0.193340137,-0.133700853,0.017364389
-0.130748719,-0.192832351,-0.972481608,0.005031824,-0.008583248,0.007698834,0.020254947,-0.00199018,0.010400763,0.194047853,-0.13364708,0.017687666
-0.130748719,-0.192832351,-0.972481608,0.005031824,-0.008583248,0.007698834,0.020254947,-0.00199018,0.010400763,0.194047853,-0.13364708,0.017687666
-0.130748719,-0.192832351,-0.972481608,0.005031824,-0.008583248,0.007698834,0.020254947,-0.00199018,0.010400763,0.194047853,-0.13364708,0.017687666
-0.130831793,-0.19293718,-0.97244966,0.003451705,-0.007028818,0.010703385,-0.007039963,-0.002620442,0.013027811,0.194154699,-0.13373533,0.017932846
-0.130831793,-0.19293718,-0.97244966,0.003451705,-0.007028818,0.010703385,-0.007039963,-0.002620442,0.013027811,0.194154699,-0.13373533,0.017932846
-0.130831793,-0.19293718,-0.97244966,0.003451705,-0.007028818,0.010703385,-0.007039963,-0.002620442,0.013027811,0.194154699,-0.13373533,0.017932846
-0.131050467,-0.192607209,-0.972485602,0.000801757,-0.006580561,0.012997627,-0.014426374,-0.006407748,0.021689476,0.193818416,-0.133951311,0.018270268
-0.131050467,-0.192607209,-0.972485602,0.000801757,-0.006580561,0.012997627,-0.014426374,-0.006407748,0.021689476,0.193818416,-0.133951311,0.018270268
-0.131050467,-0.192607209,-0.972485602,0.000801757,-0.006580561,0.012997627,-0.014426374,-0.006407748,0.021689476,0.193818416,-0.133951311,0.018270268
-0.13128072,-0.192338899,-0.972507656,-0.000783771,-0.000852153,0.015262723,-0.008042617,-0.008824277,0.018850653,0.193544998,-0.134180833,0.01865294
-0.13128072,-0.192338899,-0.972507656,-0.000783771,-0.000852153,0.015262723,-0.008042617,-0.008824277,0.018850653,0.193544998,-0.134180833,0.01865294
-0.13128072,-0.192338899,-0.972507656,-0.000783771,-0.000852153,0.015262723,-0.008042617,-0.008824277,0.018850653,0.193544998,-0.134180833,0.01865294
-0.13128072,-0.192338899,-0.972507656,-0.000783771,-0.000852153,0.015262723,-0.008042617,-0.008824277,0.018850653,0.193544998,-0.134180833,0.01865294
-0.13128072,-0.192338899,-0.972507656,-0.000783771,-0.000852153,0.015262723,-0.008042617,-0.008824277,0.018850653,0.193544998,-0.134180833,0.01865294
-0.13128072,-0.192338899,-0.972507656,-0.000783771,-0.000852153,0.015262723,-0.008042617,-0.008824277,0.018850653,0.193544998,-0.134180833,0.01865294
-0.131373033,-0.192655161,-0.972432554,0.004252329,0.004362136,0.007344604,0.025072167,-0.003895346,0.010571577,0.193867282,-0.134284301,0.018941937
-0.131373033,-0.192655161,-0.972432554,0.004252329,0.004362136,0.007344604,0.025072167,-0.003895346,0.010571577,0.193867282,-0.134284301,0.018941937
-0.131399557,-0.193544239,-0.972252429,0.012991637,0.006075189,0.005089283,0.04859174,-0.003819905,0.014290148,0.194773412,-0.134335669,0.019273551
-0.131399557,-0.193544239,-0.972252429,0.012991637,0.006075189,0.005089283,0.04859174,-0.003819905,0.014290148,0.194773412,-0.134335669,0.019273551
-0.131399557,-0.193544239,-0.972252429,0.012991637,0.006075189,0.005089283,0.04859174,-0.003819905,0.014290148,0.194773412,-0.134335669,0.019273551
-0.131399557,-0.193544239,-0.972252429,0.012991637,0.006075189,0.005089283,0.04859174,-0.003819905,0.014290148,0.194773412,-0.134335669,0.019273551
-0.131399557,-0.193544239,-0.972252429,0.012991637,0.006075189,0.005089283,0.04859174,-0.003819905,0.014290148,0.194773412,-0.134335669,0.019273551
-0.131549984,-0.194771871,-0.97198689,0.001224995,0.004754633,0.014085829,0.064359233,-0.004236606,0.017133288,0.196024861,-0.134523922,0.01975927
-0.131549984,-0.194771871,-0.97198689,0.001224995,0.004754633,0.014085829,0.064359233,-0.004236606,0.017133288,0.196024861,-0.134523922,0.01975927
-0.131549984,-0.194771871,-0.97198689,0.001224995,0.004754633,0.014085829,0.064359233,-0.004236606,0.017133288,0.196024861,-0.134523922,0.01975927
-0.131549984,-0.194771871,-0.97198689,0.001224995,0.004754633,0.014085829,0.064359233,-0.004236606,0.017133288,0.196024861,-0.134523922,0.01975927
-0.131549984,-0.194771871,-0.97198689,0.001224995,0.004754633,0.014085829,0.064359233,-0.004236606,0.017133288,0.196024861,-0.134523922,0.01975927
-0.132359833,-0.199032024,-0.971013486,0.002691016,0.004757702,0.010640442,0.081745431,-0.020066738,-0.016182005,0.200370076,-0.13547605,0.019147778
-0.132359833,-0.199032024,-0.971013486,0.002691016,0.004757702,0.010640442,0.081745431,-0.020066738,-0.016182005,0.200370076,-0.13547605,0.019147778
-0.132583901,-0.200851545,-0.970608115,0.00114508,-0.014174715,0.00848037,0.071960382,-0.014993209,-0.017297339,0.202227108,-0.135758572,0.019004232
-0.132583901,-0.200851545,-0.970608115,0.00114508,-0.014174715,0.00848037,0.071960382,-0.014993209,-0.017297339,0.202227108,-0.135758572,0.019004232
-0.132583901,-0.200851545,-0.970608115,0.00114508,-0.014174715,0.00848037,0.071960382,-0.014993209,-0.017297339,0.202227108,-0.135758572,0.019004232
-0.13272132,-0.201504692,-0.970453978,0.003037259,-0.027605429,0.010554016,-0.002269509,-0.010068201,-0.001444072,0.202893883,-0.135918883,0.018889705
-0.13272132,-0.201504692,-0.970453978,0.003037259,-0.027605429,0.010554016,-0.002269509,-0.010068201,-0.001444072,0.202893883,-0.135918883,0.018889705
-0.13272132,-0.201504692,-0.970453978,0.003037259,-0.027605429,0.010554016,-0.002269509,-0.010068201,-0.001444072,0.202893883,-0.135918883,0.018889705
-0.13272132,-0.201504692,-0.970453978,0.003037259,-0.027605429,0.010554016,-0.002269509,-0.010068201,-0.001444072,0.202893883,-0.135918883,0.018889705
-0.13272132,-0.201504692,-0.970453978,0.003037259,-0.027605429,0.010554016,-0.002269509,-0.010068201,-0.001444072,0.202893883,-0.135918883,0.018889705
-0.13272132,-0.201504692,-0.970453978,0.003037259,-0.027605429,0.010554016,-0.002269509,-0.010068201,-0.001444072,0.202893883,-0.135918883,0.018889705
-0.132881209,-0.200534552,-0.97063303,-0.000175029,-0.027843148,0.008017004,-0.046993531,-0.006854117,-0.001346441,0.201903529,-0.136055817,0.018785955
-0.132881209,-0.200534552,-0.97063303,-0.000175029,-0.027843148,0.008017004,-0.046993531,-0.006854117,-0.001346441,0.201903529,-0.136055817,0.018785955
-0.132881209,-0.200534552,-0.97063303,-0.000175029,-0.027843148,0.008017004,-0.046993531,-0.006854117,-0.001346441,0.201903529,-0.136055817,0.018785955
-0.132881209,-0.200534552,-0.97063303,-0.000175029,-0.027843148,0.008017004,-0.046993531,-0.006854117,-0.001346441,0.201903529,-0.136055817,0.018785955
-0.132830366,-0.199130207,-0.970929086,-0.007733181,-0.014797375,0.005566418,-0.075718947,0.006891255,0.014438275,0.200470271,-0.135963437,0.018784631
-0.132830366,-0.199130207,-0.970929086,-0.007733181,-0.014797375,0.005566418,-0.075718947,0.006891255,0.014438275,0.200470271,-0.135963437,0.018784631
-0.132830366,-0.199130207,-0.970929086,-0.007733181,-0.014797375,0.005566418,-0.075718947,0.006891255,0.014438275,0.200470271,-0.135963437,0.018784631
-0.132830366,-0.199130207,-0.970929086,-0.007733181,-0.014797375,0.005566418,-0.075718947,0.006891255,0.014438275,0.200470271,-0.135963437,0.018784631
-0.132830366,-0.199130207,-0.970929086,-0.007733181,-0.014797375,0.005566418,-0.075718947,0.006891255,0.014438275,0.200470271,-0.135963437,0.018784631
-0.132830366,-0.199130207,-0.970929086,-0.007733181,-0.014797375,0.005566418,-0.075718947,0.006891255,0.014438275,0.200470271,-0.135963437,0.018784631
-0.132830366,-0.199130207,-0.970929086,-0.007733181,-0.014797375,0.005566418,-0.075718947,0.006891255,0.014438275,0.200470271,-0.135963437,0.018784631
-0.132830366,-0.199130207,-0.970929086,-0.007733181,-0.014797375,0.005566418,-0.075718947,0.006891255,0.014438275,0.200470271,-0.135963437,0.018784631
-0.132665455,-0.197948918,-0.971193135,-0.004007101,0.000378743,0.013154745,-0.06160209,0.008368464,0.010248217,0.199264994,-0.135760238,0.018778472
-0.132665455,-0.197948918,-0.971193135,-0.004007101,0.000378743,0.013154745,-0.06160209,0.008368464,0.010248217,0.199264994,-0.135760238,0.018778472
-0.132665455,-0.197948918,-0.971193135,-0.004007101,0.000378743,0.013154745,-0.06160209,0.008368464,0.010248217,0.199264994,-0.135760238,0.018778472
-0.132642329,-0.197880536,-0.971210241,-0.003038406,0.019460142,0.012775064,-0.006580621,-0.0006383,0.016468935,0.199195223,-0.135734497,0.01896623
-0.132642329,-0.197880536,-0.971210241,-0.003038406,0.019460142,0.012775064,-0.006580621,-0.0006383,0.016468935,0.199195223,-0.135734497,0.01896623
-0.132642329,-0.197880536,-0.971210241,-0.003038406,0.019460142,0.012775064,-0.006580621,-0.0006383,0.016468935,0.199195223,-0.135734497,0.01896623
-0.13274923,-0.198531017,-0.971062839,0.00562869,0.015365154,0.007500768,0.003560297,0.004248891,0.027350077,0.199858871,-0.135862912,0.019438137
-0.13274923,-0.198531017,-0.971062839,0.00562869,0.015365154,0.007500768,0.003560297,0.004248891,0.027350077,0.199858871,-0.135862912,0.019438137
-0.13274923,-0.198531017,-0.971062839,0.00562869,0.015365154,0.007500768,0.003560297,0.004248891,0.027350077,0.199858871,-0.135862912,0.019438137
-0.13274923,-0.198531017,-0.971062839,0.00562869,0.015365154,0.007500768,0.003560297,0.004248891,0.027350077,0.199858871,-0.135862912,0.019438137
-0.13274923,-0.198531017,-0.971062839,0.00562869,0.015365154,0.007500768,0.003560297,0.004248891,0.027350077,0.199858871,-0.135862912,0.019438137
-0.132909209,-0.198946789,-0.970955908,-0.003061414,0.000171229,0.010827005,0.007788145,0.001220539,0.035075162,0.200283116,-0.136039432,0.020135336
-0.132909209,-0.198946789,-0.970955908,-0.003061414,0.000171229,0.010827005,0.007788145,0.001220539,0.035075162,0.200283116,-0.136039432,0.020135336
-0.132909209,-0.198946789,-0.970955908,-0.003061414,0.000171229,0.010827005,0.007788145,0.001220539,0.035075162,0.200283116,-0.136039432,0.020135336
-0.132909209,-0.198946789,-0.970955908,-0.003061414,0.000171229,0.010827005,0.007788145,0.001220539,0.035075162,0.200283116,-0.136039432,0.020135336
-0.133134618,-0.198815092,-0.970951974,0.000200495,-0.020880267,0.011540234,-0.032136381,0.002166845,0.039573986,0.200148732,-0.136267853,0.020932955
-0.133134618,-0.198815092,-0.970951974,0.000200495,-0.020880267,0.011540234,-0.032136381,0.002166845,0.039573986,0.200148732,-0.136267853,0.020932955
-0.133134618,-0.198815092,-0.970951974,0.000200495,-0.020880267,0.011540234,-0.032136381,0.002166845,0.039573986,0.200148732,-0.136267853,0.020932955
-0.133134618,-0.198815092,-0.970951974,0.000200495,-0.020880267,0.011540234,-0.032136381,0.002166845,0.039573986,0.200148732,-0.136267853,0.020932955
-0.133134618,-0.198815092,-0.970951974,0.000200495,-0.020880267,0.011540234,-0.032136381,0.002166845,0.039573986,0.200148732,-0.136267853,0.020932955
-0.133134618,-0.198815092,-0.970951974,0.000200495,-0.020880267,0.011540234,-0.032136381,0.002166845,0.039573986,0.200148732,-0.136267853,0.020932955
-0.133134618,-0.198815092,-0.970951974,0.000200495,-0.020880267,0.011540234,-0.032136381,0.002166845,0.039573986,0.200148732,-0.136267853,0.020932955
-0.133134618,-0.198815092,-0.970951974,0.000200495,-0.020880267,0.011540234,-0.032136381,0.002166845,0.039573986,0.200148732,-0.136267853,0.020932955
-0.133167416,-0.197416767,-0.971232772,0.005985886,-0.025604963,0.008052111,-0.064258315,0.018902779,0.026420847,0.198722122,-0.136262091,0.021424834
-0.133167416,-0.197416767,-0.971232772,0.005985886,-0.025604963,0.008052111,-0.064258315,0.018902779,0.026420847,0.198722122,-0.136262091,0.021424834
-0.133167416,-0.197416767,-0.971232772,0.005985886,-0.025604963,0.008052111,-0.064258315,0.018902779,0.026420847,0.198722122,-0.136262091,0.021424834
-0.133167416,-0.197416767,-0.971232772,0.005985886,-0.025604963,0.008052111,-0.064258315,0.018902779,0.026420847,0.198722122,-0.136262091,0.021424834
-0.133167416,-0.197416767,-0.971232772,0.005985886,-0.025604963,0.008052111,-0.064258315,0.018902779,0.026420847,0.198722122,-0.136262091,0.021424834
-0.133167416,-0.197416767,-0.971232772,0.005985886,-0.025604963,0.008052111,-0.064258315,0.018902779,0.026420847,0.198722122,-0.136262091,0.021424834
-0.133167416,-0.197416767,-0.971232772,0.005985886,-0.025604963,0.008052111,-0.064258315,0.018902779,0.026420847,0.198722122,-0.136262091,0.021424834
-0.132938728,-0.195860133,-0.971579194,0.009419307,-0.003159538,0.008001804,-0.05994451,0.006093155,0.027202806,0.197134499,-0.135983051,0.021717407
-0.132938728,-0.195860133,-0.971579194,0.009419307,-0.003159538,0.008001804,-0.05994451,0.006093155,0.027202806,0.197134499,-0.135983051,0.021717407
-0.132938728,-0.195860133,-0.971579194,0.009419307,-0.003159538,0.008001804,-0.05994451,0.006093155,0.027202806,0.197134499,-0.135983051,0.021717407
-0.132938728,-0.195860133,-0.971579194,0.009419307,-0.003159538,0.008001804,-0.05994451,0.006093155,0.027202806,0.197134499,-0.135983051,0.021717407
-0.132938728,-0.195860133,-0.971579194,0.009419307,-0.003159538,0.008001804,-0.05994451,0.006093155,0.027202806,0.197134499,-0.135983051,0.021717407
-0.132697836,-0.194263414,-0.97193265,0.007377908,0.009480238,0.01188004,-0.026079034,0.006234206,0.024433866,0.195506501,-0.135690912,0.022871593
-0.132697836,-0.194263414,-0.97193265,0.007377908,0.009480238,0.01188004,-0.026079034,0.006234206,0.024433866,0.195506501,-0.135690912,0.022871593
-0.132438749,-0.193951741,-0.972030222,-0.000922531,0.004224762,0.012786329,-0.017927738,0.010751218,0.006301838,0.195188788,-0.135415775,0.023169355
-0.132438749,-0.193951741,-0.972030222,-0.000922531,0.004224762,0.012786329,-0.017927738,0.010751218,0.006301838,0.195188788,-0.135415775,0.023169355
-0.132438749,-0.193951741,-0.972030222,-0.000922531,0.004224762,0.012786329,-0.017927738,0.010751218,0.006301838,0.195188788,-0.135415775,0.023169355
-0.132389456,-0.19372569,-0.972082019,0.015522927,0.00294584,0.012792349,-0.010671037,0.001460357,-0.000631489,0.194958362,-0.135358862,0.02315697
-0.132389456,-0.19372569,-0.972082019,0.015522927,0.00294584,0.012792349,-0.010671037,0.001460357,-0.000631489,0.194958362,-0.135358862,0.02315697
-0.132389456,-0.19372569,-0.972082019,0.015522927,0.00294584,0.012792349,-0.010671037,0.001460357,-0.000631489,0.194958362,-0.135358862,0.02315697
-0.132389456,-0.19372569,-0.972082019,0.015522927,0.00294584,0.012792349,-0.010671037,0.001460357,-0.000631489,0.194958362,-0.135358862,0.02315697
-0.132389456,-0.19372569,-0.972082019,0.015522927,0.00294584,0.012792349,-0.010671037,0.001460357,-0.000631489,0.194958362,-0.135358862,0.02315697
-0.132712588,-0.193339154,-0.972114861,0.014259189,0.00046891,0.014885128,-0.016838998,-0.004146591,-0.005009779,0.194564383,-0.135680683,0.023136084
-0.132712588,-0.193339154,-0.972114861,0.014259189,0.00046891,0.014885128,-0.016838998,-0.004146591,-0.005009779,0.194564383,-0.135680683,0.023136084
-0.132712588,-0.193339154,-0.972114861,0.014259189,0.00046891,0.014885128,-0.016838998,-0.004146591,-0.005009779,0.194564383,-0.135680683,0.023136084
-0.132712588,-0.193339154,-0.972114861,0.014259189,0.00046891,0.014885128,-0.016838998,-0.004146591,-0.005009779,0.194564383,-0.135680683,0.023136084
-0.132720724,-0.192932725,-0.972194493,0.001678824,-0.005781636,0.010493934,-0.01237056,-0.008377433,-0.003704351,0.194150156,-0.135677923,0.023030636
-0.132720724,-0.192932725,-0.972194493,0.001678824,-0.005781636,0.010493934,-0.01237056,-0.008377433,-0.003704351,0.194150156,-0.135677923,0.023030636
-0.132720724,-0.192932725,-0.972194493,0.001678824,-0.005781636,0.010493934,-0.01237056,-0.008377433,-0.003704351,0.194150156,-0.135677923,0.023030636
-0.132720724,-0.192932725,-0.972194493,0.001678824,-0.005781636,0.010493934,-0.01237056,-0.008377433,-0.003704351,0.194150156,-0.135677923,0.023030636
-0.132720724,-0.192932725,-0.972194493,0.001678824,-0.005781636,0.010493934,-0.01237056,-0.008377433,-0.003704351,0.194150156,-0.135677923,0.023030636
-0.132720724,-0.192932725,-0.972194493,0.001678824,-0.005781636,0.010493934,-0.01237056,-0.008377433,-0.003704351,0.194150156,-0.135677923,0.023030636
-0.132720724,-0.192932725,-0.972194493,0.001678824,-0.005781636,0.010493934,-0.01237056,-0.008377433,-0.003704351,0.194150156,-0.135677923,0.023030636
-0.132720724,-0.192932725,-0.972194493,0.001678824,-0.005781636,0.010493934,-0.01237056,-0.008377433,-0.003704351,0.194150156,-0.135677923,0.023030636
-0.132720724,-0.192932725,-0.972194493,0.001678824,-0.005781636,0.010493934,-0.01237056,-0.008377433,-0.003704351,0.194150156,-0.135677923,0.023030636
-0.132702157,-0.192702994,-0.972242594,-0.004992574,-0.010604262,0.011732221,-0.00920771,0.005211054,-0.010656746,0.193916027,-0.135652537,0.022883901
-0.132702157,-0.192702994,-0.972242594,-0.004992574,-0.010604262,0.011732221,-0.00920771,0.005211054,-0.010656746,0.193916027,-0.135652537,0.022883901
-0.132702157,-0.192702994,-0.972242594,-0.004992574,-0.010604262,0.011732221,-0.00920771,0.005211054,-0.010656746,0.193916027,-0.135652537,0.022883901
-0.132702157,-0.192702994,-0.972242594,-0.004992574,-0.010604262,0.011732221,-0.00920771,0.005211054,-0.010656746,0.193916027,-0.135652537,0.022883901
-0.132399112,-0.192644879,-0.972295463,-0.003174648,0.000659645,0.011037409,-0.000889393,0.001652746,-0.002146348,0.193856808,-0.135339267,0.022664144
-0.132399112,-0.192644879,-0.972295463,-0.003174648,0.000659645,0.011037409,-0.000889393,0.001652746,-0.002146348,0.193856808,-0.135339267,0.022664144
-0.132399112,-0.192644879,-0.972295463,-0.003174648,0.000659645,0.011037409,-0.000889393,0.001652746,-0.002146348,0.193856808,-0.135339267,0.022664144
-0.132399112,-0.192644879,-0.972295463,-0.003174648,0.000659645,0.011037409,-0.000889393,0.001652746,-0.002146348,0.193856808,-0.135339267,0.022664144
-0.132399112,-0.192644879,-0.972295463,-0.003174648,0.000659645,0.011037409,-0.000889393,0.001652746,-0.002146348,0.193856808,-0.135339267,0.022664144
-0.132399112,-0.192644879,-0.972295463,-0.003174648,0.000659645,0.011037409,-0.000889393,0.001652746,-0.002146348,0.193856808,-0.135339267,0.022664144
-0.132399112,-0.192644879,-0.972295463,-0.003174648,0.000659645,0.011037409,-0.000889393,0.001652746,-0.002146348,0.193856808,-0.135339267,0.022664144
-0.132399112,-0.192644879,-0.972295463,-0.003174648,0.000659645,0.011037409,-0.000889393,0.001652746,-0.002146348,0.193856808,-0.135339267,0.022664144
-0.132125691,-0.192652956,-0.972331047,0.000198752,-0.001346499,0.012720942,-0.005490043,-0.000522972,0.007235276,0.193865032,-0.135058284,0.022688481
-0.132125691,-0.192652956,-0.972331047,0.000198752,-0.001346499,0.012720942,-0.005490043,-0.000522972,0.007235276,0.193865032,-0.135058284,0.022688481
-0.132125691,-0.192652956,-0.972331047,0.000198752,-0.001346499,0.012720942,-0.005490043,-0.000522972,0.007235276,0.193865032,-0.135058284,0.022688481
-0.132125691,-0.192652956,-0.972331047,0.000198752,-0.001346499,0.012720942,-0.005490043,-0.000522972,0.007235276,0.193865032,-0.135058284,0.022688481
-0.132087946,-0.192697734,-0.972327292,-0.003806293,0.003901526,0.007697046,0.001348382,0.00181377,0.001249662,0.193910669,-0.135020681,0.022761025
-0.132087946,-0.192697734,-0.972327292,-0.003806293,0.003901526,0.007697046,0.001348382,0.00181377,0.001249662,0.193910669,-0.135020681,0.022761025
-0.132087946,-0.192697734,-0.972327292,-0.003806293,0.003901526,0.007697046,0.001348382,0.00181377,0.001249662,0.193910669,-0.135020681,0.022761025
-0.132087946,-0.192697734,-0.972327292,-0.003806293,0.003901526,0.007697046,0.001348382,0.00181377,0.001249662,0.193910669,-0.135020681,0.022761025
-0.132087946,-0.192697734,-0.972327292,-0.003806293,0.003901526,0.007697046,0.001348382,0.00181377,0.001249662,0.193910669,-0.135020681,0.022761025
-0.132087946,-0.192697734,-0.972327292,-0.003806293,0.003901526,0.007697046,0.001348382,0.00181377,0.001249662,0.193910669,-0.135020681,0.022761025
-0.132158071,-0.193034947,-0.972250879,0.004183143,0.009365708,0.00865823,0.012378596,0.000595362,-0.004904371,0.194254337,-0.135101977,0.022739227
-0.132158071,-0.193034947,-0.972250879,0.004183143,0.009365708,0.00865823,0.012378596,0.000595362,-0.004904371,0.194254337,-0.135101977,0.022739227
-0.132158071,-0.193034947,-0.972250879,0.004183143,0.009365708,0.00865823,0.012378596,0.000595362,-0.004904371,0.194254337,-0.135101977,0.022739227
-0.132158071,-0.193034947,-0.972250879,0.004183143,0.009365708,0.00865823,0.012378596,0.000595362,-0.004904371,0.194254337,-0.135101977,0.022739227
-0.132158071,-0.193034947,-0.972250879,0.004183143,0.009365708,0.00865823,0.012378596,0.000595362,-0.004904371,0.194254337,-0.135101977,0.022739227
-0.132281974,-0.193348661,-0.972171664,0.009403512,0.013021126,0.006671667,0.016543433,-0.001875665,-0.008407813,0.194574071,-0.135237979,0.022673042
-0.132281974,-0.193348661,-0.972171664,0.009403512,0.013021126,0.006671667,0.016543433,-0.001875665,-0.008407813,0.194574071,-0.135237979,0.022673042
-0.132281974,-0.193348661,-0.972171664,0.009403512,0.013021126,0.006671667,0.016543433,-0.001875665,-0.008407813,0.194574071,-0.135237979,0.022673042
-0.132367119,-0.193717182,-0.972086728,0.007993311,0.006218031,0.012522399,0.017001737,-0.01015473,-0.00816424,0.194949689,-0.135335656,0.022517582
-0.132367119,-0.193717182,-0.972086728,0.007993311,0.006218031,0.012522399,0.017001737,-0.01015473,-0.00816424,0.194949689,-0.135335656,0.022517582
-0.132367119,-0.193717182,-0.972086728,0.007993311,0.006218031,0.012522399,0.017001737,-0.01015473,-0.00816424,0.194949689,-0.135335656,0.022517582
-0.132367119,-0.193717182,-0.972086728,0.007993311,0.006218031,0.012522399,0.017001737,-0.01015473,-0.00816424,0.194949689,-0.135335656,0.022517582
-0.132367119,-0.193717182,-0.972086728,0.007993311,0.006218031,0.012522399,0.017001737,-0.01015473,-0.00816424,0.194949689,-0.135335656,0.022517582
-0.132367119,-0.193717182,-0.972086728,0.007993311,0.006218031,0.012522399,0.017001737,-0.01015473,-0.00816424,0.194949689,-0.135335656,0.022517582
-0.132367119,-0.193717182,-0.972086728,0.007993311,0.006218031,0.012522399,0.017001737,-0.01015473,-0.00816424,0.194949689,-0.135335656,0.022517582
-0.132605016,-0.194123417,-0.97197324,0.002219245,-0.000760987,0.01369065,0.023467319,-0.01075652,-0.007286089,0.195363786,-0.135591564,0.022423419
-0.132605016,-0.194123417,-0.97197324,0.002219245,-0.000760987,0.01369065,0.023467319,-0.01075652,-0.007286089,0.195363786,-0.135591564,0.022423419
-0.132605016,-0.194123417,-0.97197324,0.002219245,-0.000760987,0.01369065,0.023467319,-0.01075652,-0.007286089,0.195363786,-0.135591564,0.022423419
-0.132605016,-0.194123417,-0.97197324,0.002219245,-0.000760987,0.01369065,0.023467319,-0.01075652,-0.007286089,0.195363786,-0.135591564,0.022423419
-0.132605016,-0.194123417,-0.97197324,0.002219245,-0.000760987,0.01369065,0.023467319,-0.01075652,-0.007286089,0.195363786,-0.135591564,0.022423419
-0.132737294,-0.194113404,-0.971957207,0.000963002,-0.01345101,0.009295344,-0.012819462,-0.003108079,-0.003447995,0.195353582,-0.135727381,0.022362976
-0.132737294,-0.194113404,-0.971957207,0.000963002,-0.01345101,0.009295344,-0.012819462,-0.003108079,-0.003447995,0.195353582,-0.135727381,0.022362976
-0.132737294,-0.194113404,-0.971957207,0.000963002,-0.01345101,0.009295344,-0.012819462,-0.003108079,-0.003447995,0.195353582,-0.135727381,0.022362976
-0.132737294,-0.194113404,-0.971957207,0.000963002,-0.01345101,0.009295344,-0.012819462,-0.003108079,-0.003447995,0.195353582,-0.135727381,0.022362976
-0.132737294,-0.194113404,-0.971957207,0.000963002,-0.01345101,0.009295344,-0.012819462,-0.003108079,-0.003447995,0.195353582,-0.135727381,0.022362976
-0.132588387,-0.193184242,-0.972162604,0.003728494,-0.020819426,0.013254404,-0.060346421,-0.005706282,-0.021716693,0.194406494,-0.13554867,0.021944665
-0.132588387,-0.193184242,-0.972162604,0.003728494,-0.020819426,0.013254404,-0.060346421,-0.005706282,-0.021716693,0.194406494,-0.13554867,0.021944665
-0.132588387,-0.193184242,-0.972162604,0.003728494,-0.020819426,0.013254404,-0.060346421,-0.005706282,-0.021716693,0.194406494,-0.13554867,0.021944665
-0.132588387,-0.193184242,-0.972162604,0.003728494,-0.020819426,0.013254404,-0.060346421,-0.005706282,-0.021716693,0.194406494,-0.13554867,0.021944665
-0.132588387,-0.193184242,-0.972162604,0.003728494,-0.020819426,0.013254404,-0.060346421,-0.005706282,-0.021716693,0.194406494,-0.13554867,0.021944665
-0.132588387,-0.193184242,-0.972162604,0.003728494,-0.020819426,0.013254404,-0.060346421,-0.005706282,-0.021716693,0.194406494,-0.13554867,0.021944665
-0.132411212,-0.192001149,-0.97242111,0.003414005,-0.003630891,0.014077485,-0.050358608,-0.000888867,-0.020540535,0.193200833,-0.135334197,0.021369977
-0.132411212,-0.192001149,-0.97242111,0.003414005,-0.003630891,0.014077485,-0.050358608,-0.000888867,-0.020540535,0.193200833,-0.135334197,0.021369977
-0.132411212,-0.192001149,-0.97242111,0.003414005,-0.003630891,0.014077485,-0.050358608,-0.000888867,-0.020540535,0.193200833,-0.135334197,0.021369977
-0.132411212,-0.192001149,-0.97242111,0.003414005,-0.003630891,0.014077485,-0.050358608,-0.000888867,-0.020540535,0.193200833,-0.135334197,0.021369977
-0.132411212,-0.192001149,-0.97242111,0.003414005,-0.003630891,0.014077485,-0.050358608,-0.000888867,-0.020540535,0.193200833,-0.135334197,0.021369977
-0.132411212,-0.192001149,-0.97242111,0.003414005,-0.003630891,0.014077485,-0.050358608,-0.000888867,-0.020540535,0.193200833,-0.135334197,0.021369977
-0.132369116,-0.191590071,-0.972507954,-0.003113061,0.014436409,0.021946311,-0.002373626,-0.00658388,0.006614972,0.192781969,-0.135279773,0.021123177
-0.132369116,-0.191590071,-0.972507954,-0.003113061,0.014436409,0.021946311,-0.002373626,-0.00658388,0.006614972,0.192781969,-0.135279773,0.021123177
-0.132369116,-0.191590071,-0.972507954,-0.003113061,0.014436409,0.021946311,-0.002373626,-0.00658388,0.006614972,0.192781969,-0.135279773,0.021123177
-0.132369116,-0.191590071,-0.972507954,-0.003113061,0.014436409,0.021946311,-0.002373626,-0.00658388,0.006614972,0.192781969,-0.135279773,0.021123177
-0.132369116,-0.191590071,-0.972507954,-0.003113061,0.014436409,0.021946311,-0.002373626,-0.00658388,0.006614972,0.192781969,-0.135279773,0.021123177
-0.132369116,-0.191590071,-0.972507954,-0.003113061,0.014436409,0.021946311,-0.002373626,-0.00658388,0.006614972,0.192781969,-0.135279773,0.021123177
-0.13259992,-0.192241192,-0.972347975,-0.0085738,0.010921881,0.014828324,0.035053067,-0.010518081,0.015203773,0.193445422,-0.135534789,0.021389613
-0.13259992,-0.192241192,-0.972347975,-0.0085738,0.010921881,0.014828324,0.035053067,-0.010518081,0.015203773,0.193445422,-0.135534789,0.021389613
-0.13259992,-0.192241192,-0.972347975,-0.0085738,0.010921881,0.014828324,0.035053067,-0.010518081,0.015203773,0.193445422,-0.135534789,0.021389613
-0.13259992,-0.192241192,-0.972347975,-0.0085738,0.010921881,0.014828324,0.035053067,-0.010518081,0.015203773,0.193445422,-0.135534789,0.021389613
-0.13259992,-0.192241192,-0.972347975,-0.0085738,0.010921881,0.014828324,0.035053067,-0.010518081,0.015203773,0.193445422,-0.135534789,0.021389613
-0.13259992,-0.192241192,-0.972347975,-0.0085738,0.010921881,0.014828324,0.035053067,-0.010518081,0.015203773,0.193445422,-0.135534789,0.021389613
-0.132728741,-0.193149343,-0.972150385,0.000145748,-0.006709337,0.009290159,-0.002398713,0.001132,0.015181349,0.19437092,-0.135692087,0.021742932
-0.132728741,-0.193149343,-0.972150385,0.000145748,-0.006709337,0.009290159,-0.002398713,0.001132,0.015181349,0.19437092,-0.135692087,0.021742932
-0.132728741,-0.193149343,-0.972150385,0.000145748,-0.006709337,0.009290159,-0.002398713,0.001132,0.015181349,0.19437092,-0.135692087,0.021742932
-0.13259843,-0.192874983,-0.972222686,0.00640887,-0.017176569,0.011681736,-0.039815739,0.006354569,0.000729386,0.194091305,-0.135550546,0.021882137
-0.13259843,-0.192874983,-0.972222686,0.00640887,-0.017176569,0.011681736,-0.039815739,0.006354569,0.000729386,0.194091305,-0.135550546,0.021882137
-0.13259843,-0.192874983,-0.972222686,0.00640887,-0.017176569,0.011681736,-0.039815739,0.006354569,0.000729386,0.194091305,-0.135550546,0.021882137
-0.13259843,-0.192874983,-0.972222686,0.00640887,-0.017176569,0.011681736,-0.039815739,0.006354569,0.000729386,0.194091305,-0.135550546,0.021882137
-0.13259843,-0.192874983,-0.972222686,0.00640887,-0.017176569,0.011681736,-0.039815739,0.006354569,0.000729386,0.194091305,-0.135550546,0.021882137
-0.13259843,-0.192874983,-0.972222686,0.00640887,-0.017176569,0.011681736,-0.039815739,0.006354569,0.000729386,0.194091305,-0.135550546,0.021882137
-0.132794887,-0.191234961,-0.972519755,0.000105083,0.00385797,0.01594615,-0.011542144,0.000857429,-0.01015783,0.192420179,-0.135707951,0.021766653
-0.132794887,-0.191234961,-0.972519755,0.000105083,0.00385797,0.01594615,-0.011542144,0.000857429,-0.01015783,0.192420179,-0.135707951,0.021766653
-0.132794887,-0.191234961,-0.972519755,0.000105083,0.00385797,0.01594615,-0.011542144,0.000857429,-0.01015783,0.192420179,-0.135707951,0.021766653
-0.132794887,-0.191234961,-0.972519755,0.000105083,0.00385797,0.01594615,-0.011542144,0.000857429,-0.01015783,0.192420179,-0.135707951,0.021766653
-0.132794887,-0.191234961,-0.972519755,0.000105083,0.00385797,0.01594615,-0.011542144,0.000857429,-0.01015783,0.192420179,-0.135707951,0.021766653
-0.132794887,-0.191234961,-0.972519755,0.000105083,0.00385797,0.01594615,-0.011542144,0.000857429,-0.01015783,0.192420179,-0.135707951,0.021766653
-0.132794887,-0.191234961,-0.972519755,0.000105083,0.00385797,0.01594615,-0.011542144,0.000857429,-0.01015783,0.192420179,-0.135707951,0.021766653
-0.132794887,-0.191234961,-0.972519755,0.000105083,0.00385797,0.01594615,-0.011542144,0.000857429,-0.01015783,0.192420179,-0.135707951,0.021766653
-0.132920146,-0.191348538,-0.972480297,0.004945278,0.007175833,0.021796584,-0.003861427,-0.011592994,-0.00960272,0.19253589,-0.135839844,0.021551345
-0.133061275,-0.191627309,-0.972406149,0.001363277,0.001305327,0.013009667,-0.017269924,-0.011420337,-0.016209276,0.192819918,-0.135992548,0.021258205
-0.133061275,-0.191627309,-0.972406149,0.001363277,0.001305327,0.013009667,-0.017269924,-0.011420337,-0.016209276,0.192819918,-0.135992548,0.021258205
-0.133061275,-0.191627309,-0.972406149,0.001363277,0.001305327,0.013009667,-0.017269924,-0.011420337,-0.016209276,0.192819918,-0.135992548,0.021258205
-0.133061275,-0.191627309,-0.972406149,0.001363277,0.001305327,0.013009667,-0.017269924,-0.011420337,-0.016209276,0.192819918,-0.135992548,0.021258205
-0.133061275,-0.191627309,-0.972406149,0.001363277,0.001305327,0.013009667,-0.017269924,-0.011420337,-0.016209276,0.192819918,-0.135992548,0.021258205
-0.133061275,-0.191627309,-0.972406149,0.001363277,0.001305327,0.013009667,-0.017269924,-0.011420337,-0.016209276,0.192819918,-0.135992548,0.021258205
-0.133061275,-0.191627309,-0.972406149,0.001363277,0.001305327,0.013009667,-0.017269924,-0.011420337,-0.016209276,0.192819918,-0.135992548,0.021258205
-0.133061275,-0.191627309,-0.972406149,0.001363277,0.001305327,0.013009667,-0.017269924,-0.011420337,-0.016209276,0.192819918,-0.135992548,0.021258205
-0.133061275,-0.191627309,-0.972406149,0.001363277,0.001305327,0.013009667,-0.017269924,-0.011420337,-0.016209276,0.192819918,-0.135992548,0.021258205
-0.132933021,-0.191268295,-0.972494364,-0.005066872,-0.001708731,0.003271222,-0.039777629,0.004760764,-0.016205814,0.192454129,-0.1358509,0.020845311
-0.132933021,-0.191268295,-0.972494364,-0.005066872,-0.001708731,0.003271222,-0.039777629,0.004760764,-0.016205814,0.192454129,-0.1358509,0.020845311
-0.132933021,-0.191268295,-0.972494364,-0.005066872,-0.001708731,0.003271222,-0.039777629,0.004760764,-0.016205814,0.192454129,-0.1358509,0.020845311
-0.132933021,-0.191268295,-0.972494364,-0.005066872,-0.001708731,0.003271222,-0.039777629,0.004760764,-0.016205814,0.192454129,-0.1358509,0.020845311
-0.132933021,-0.191268295,-0.972494364,-0.005066872,-0.001708731,0.003271222,-0.039777629,0.004760764,-0.016205814,0.192454129,-0.1358509,0.020845311
-0.132933021,-0.191268295,-0.972494364,-0.005066872,-0.001708731,0.003271222,-0.039777629,0.004760764,-0.016205814,0.192454129,-0.1358509,0.020845311
-0.132933021,-0.191268295,-0.972494364,-0.005066872,-0.001708731,0.003271222,-0.039777629,0.004760764,-0.016205814,0.192454129,-0.1358509,0.020845311
-0.132746831,-0.190672264,-0.972636819,0.003764883,0.002684876,0.013484478,-0.027674602,0.001816203,-0.017025962,0.191846931,-0.135643327,0.02040309
-0.132746831,-0.190672264,-0.972636819,0.003764883,0.002684876,0.013484478,-0.027674602,0.001816203,-0.017025962,0.191846931,-0.135643327,0.02040309
-0.132746831,-0.190672264,-0.972636819,0.003764883,0.002684876,0.013484478,-0.027674602,0.001816203,-0.017025962,0.191846931,-0.135643327,0.02040309
-0.132746831,-0.190672264,-0.972636819,0.003764883,0.002684876,0.013484478,-0.027674602,0.001816203,-0.017025962,0.191846931,-0.135643327,0.02040309
-0.132746831,-0.190672264,-0.972636819,0.003764883,0.002684876,0.013484478,-0.027674602,0.001816203,-0.017025962,0.191846931,-0.135643327,0.02040309
-0.132746831,-0.190672264,-0.972636819,0.003764883,0.002684876,0.013484478,-0.027674602,0.001816203,-0.017025962,0.191846931,-0.135643327,0.02040309
-0.132746831,-0.190672264,-0.972636819,0.003764883,0.002684876,0.013484478,-0.027674602,0.001816203,-0.017025962,0.191846931,-0.135643327,0.02040309
-0.132690474,-0.190123081,-0.972751975,0.006561935,0.001235411,0.01088357,-0.021692581,0.001445806,-0.001820804,0.191287514,-0.135570587,0.0202147
-0.132690474,-0.190123081,-0.972751975,0.006561935,0.001235411,0.01088357,-0.021692581,0.001445806,-0.001820804,0.191287514,-0.135570587,0.0202147
-0.132690474,-0.190123081,-0.972751975,0.006561935,0.001235411,0.01088357,-0.021692581,0.001445806,-0.001820804,0.191287514,-0.135570587,0.0202147
-0.132690474,-0.190123081,-0.972751975,0.006561935,0.001235411,0.01088357,-0.021692581,0.001445806,-0.001820804,0.191287514,-0.135570587,0.0202147
-0.132690474,-0.190123081,-0.972751975,0.006561935,0.001235411,0.01088357,-0.021692581,0.001445806,-0.001820804,0.191287514,-0.135570587,0.0202147
-0.132640317,-0.189721048,-0.972837329,0.006862715,-0.000890866,0.011808157,-0.029372806,0.001294283,0.001567802,0.190878025,-0.135508211,0.020092058
-0.132640317,-0.189721048,-0.972837329,0.006862715,-0.000890866,0.011808157,-0.029372806,0.001294283,0.001567802,0.190878025,-0.135508211,0.020092058
-0.132640317,-0.189721048,-0.972837329,0.006862715,-0.000890866,0.011808157,-0.029372806,0.001294283,0.001567802,0.190878025,-0.135508211,0.020092058
-0.132640317,-0.189721048,-0.972837329,0.006862715,-0.000890866,0.011808157,-0.029372806,0.001294283,0.001567802,0.190878025,-0.135508211,0.020092058
-0.132640317,-0.189721048,-0.972837329,0.006862715,-0.000890866,0.011808157,-0.029372806,0.001294283,0.001567802,0.190878025,-0.135508211,0.020092058
-0.132699966,-0.189148128,-0.972940743,-5.10E-06,-0.005904064,0.01746577,-0.030814402,0.002863104,-0.001922909,0.190294549,-0.135554179,0.020037583
-0.132699966,-0.189148128,-0.972940743,-5.10E-06,-0.005904064,0.01746577,-0.030814402,0.002863104,-0.001922909,0.190294549,-0.135554179,0.020037583
-0.132699966,-0.189148128,-0.972940743,-5.10E-06,-0.005904064,0.01746577,-0.030814402,0.002863104,-0.001922909,0.190294549,-0.135554179,0.020037583
-0.132699966,-0.189148128,-0.972940743,-5.10E-06,-0.005904064,0.01746577,-0.030814402,0.002863104,-0.001922909,0.190294549,-0.135554179,0.020037583
-0.132692859,-0.188536957,-0.973060369,0.000827014,-0.001174688,0.011741281,-0.036573902,-0.002185027,0.013069302,0.189672167,-0.135530548,0.020043331
-0.132692859,-0.188536957,-0.973060369,0.000827014,-0.001174688,0.011741281,-0.036573902,-0.002185027,0.013069302,0.189672167,-0.135530548,0.020043331
-0.132692859,-0.188536957,-0.973060369,0.000827014,-0.001174688,0.011741281,-0.036573902,-0.002185027,0.013069302,0.189672167,-0.135530548,0.020043331
-0.132692859,-0.188536957,-0.973060369,0.000827014,-0.001174688,0.011741281,-0.036573902,-0.002185027,0.013069302,0.189672167,-0.135530548,0.020043331
-0.132692859,-0.188536957,-0.973060369,0.000827014,-0.001174688,0.011741281,-0.036573902,-0.002185027,0.013069302,0.189672167,-0.135530548,0.020043331
-0.132692859,-0.188536957,-0.973060369,0.000827014,-0.001174688,0.011741281,-0.036573902,-0.002185027,0.013069302,0.189672167,-0.135530548,0.020043331
-0.132622331,-0.187722728,-0.973227382,-0.003271833,-0.003636882,0.008215666,-0.044471063,0.003113489,0.017552095,0.188843144,-0.135436433,0.020245635
-0.132622331,-0.187722728,-0.973227382,-0.003271833,-0.003636882,0.008215666,-0.044471063,0.003113489,0.017552095,0.188843144,-0.135436433,0.020245635
-0.132622331,-0.187722728,-0.973227382,-0.003271833,-0.003636882,0.008215666,-0.044471063,0.003113489,0.017552095,0.188843144,-0.135436433,0.020245635
-0.132465288,-0.187073141,-0.97337383,-0.00237599,0.00172554,0.008407891,-0.026118077,0.00882057,0.01116003,0.188181837,-0.135257898,0.020428696
-0.132465288,-0.187073141,-0.97337383,-0.00237599,0.00172554,0.008407891,-0.026118077,0.00882057,0.01116003,0.188181837,-0.135257898,0.020428696
-0.132465288,-0.187073141,-0.97337383,-0.00237599,0.00172554,0.008407891,-0.026118077,0.00882057,0.01116003,0.188181837,-0.135257898,0.020428696
-0.132465288,-0.187073141,-0.97337383,-0.00237599,0.00172554,0.008407891,-0.026118077,0.00882057,0.01116003,0.188181837,-0.135257898,0.020428696
-0.132465288,-0.187073141,-0.97337383,-0.00237599,0.00172554,0.008407891,-0.026118077,0.00882057,0.01116003,0.188181837,-0.135257898,0.020428696
-0.132465288,-0.187073141,-0.97337383,-0.00237599,0.00172554,0.008407891,-0.026118077,0.00882057,0.01116003,0.188181837,-0.135257898,0.020428696
-0.132465288,-0.187073141,-0.97337383,-0.00237599,0.00172554,0.008407891,-0.026118077,0.00882057,0.01116003,0.188181837,-0.135257898,0.020428696
-0.132465288,-0.187073141,-0.97337383,-0.00237599,0.00172554,0.008407891,-0.026118077,0.00882057,0.01116003,0.188181837,-0.135257898,0.020428696
-0.132465288,-0.187073141,-0.97337383,-0.00237599,0.00172554,0.008407891,-0.026118077,0.00882057,0.01116003,0.188181837,-0.135257898,0.020428696
-0.132327244,-0.186771095,-0.973450601,0.001010746,0.006016389,0.014847577,-0.023003548,0.009818541,0.001268623,0.187874372,-0.13510813,0.020499549
-0.132327244,-0.186771095,-0.973450601,0.001010746,0.006016389,0.014847577,-0.023003548,0.009818541,0.001268623,0.187874372,-0.13510813,0.020499549
-0.132327244,-0.186771095,-0.973450601,0.001010746,0.006016389,0.014847577,-0.023003548,0.009818541,0.001268623,0.187874372,-0.13510813,0.020499549
-0.132327244,-0.186771095,-0.973450601,0.001010746,0.006016389,0.014847577,-0.023003548,0.009818541,0.001268623,0.187874372,-0.13510813,0.020499549
-0.132327244,-0.186771095,-0.973450601,0.001010746,0.006016389,0.014847577,-0.023003548,0.009818541,0.001268623,0.187874372,-0.13510813,0.020499549
-0.132121399,-0.186382398,-0.973553061,0.004573852,0.004178137,0.013195276,-0.032030638,0.007035575,0.004853078,0.187478722,-0.134886476,0.020210495
-0.132121399,-0.186382398,-0.973553061,0.004573852,0.004178137,0.013195276,-0.032030638,0.007035575,0.004853078,0.187478722,-0.134886476,0.020210495
-0.132121399,-0.186382398,-0.973553061,0.004573852,0.004178137,0.013195276,-0.032030638,0.007035575,0.004853078,0.187478722,-0.134886476,0.020210495
-0.132282063,-0.185937375,-0.973616302,0.001179188,0.010416433,0.007124484,-0.028092917,-0.009253432,-0.009291875,0.187025789,-0.135039842,0.020112996
-0.132282063,-0.185937375,-0.973616302,0.001179188,0.010416433,0.007124484,-0.028092917,-0.009253432,-0.009291875,0.187025789,-0.135039842,0.020112996
-0.132282063,-0.185937375,-0.973616302,0.001179188,0.010416433,0.007124484,-0.028092917,-0.009253432,-0.009291875,0.187025789,-0.135039842,0.020112996
-0.132282063,-0.185937375,-0.973616302,0.001179188,0.010416433,0.007124484,-0.028092917,-0.009253432,-0.009291875,0.187025789,-0.135039842,0.020112996
-0.132282063,-0.185937375,-0.973616302,0.001179188,0.010416433,0.007124484,-0.028092917,-0.009253432,-0.009291875,0.187025789,-0.135039842,0.020112996
-0.132282063,-0.185937375,-0.973616302,0.001179188,0.010416433,0.007124484,-0.028092917,-0.009253432,-0.009291875,0.187025789,-0.135039842,0.020112996
-0.132282063,-0.185937375,-0.973616302,0.001179188,0.010416433,0.007124484,-0.028092917,-0.009253432,-0.009291875,0.187025789,-0.135039842,0.020112996
-0.132282063,-0.185937375,-0.973616302,0.001179188,0.010416433,0.007124484,-0.028092917,-0.009253432,-0.009291875,0.187025789,-0.135039842,0.020112996
-0.132361412,-0.185354739,-0.973716617,-0.001335427,-0.006920323,0.006110907,-0.031072304,0.006754369,0.008477906,0.18643285,-0.135106116,0.020182467
-0.132361412,-0.185354739,-0.973716617,-0.001335427,-0.006920323,0.006110907,-0.031072304,0.006754369,0.008477906,0.18643285,-0.135106116,0.020182467
-0.132361412,-0.185354739,-0.973716617,-0.001335427,-0.006920323,0.006110907,-0.031072304,0.006754369,0.008477906,0.18643285,-0.135106116,0.020182467
-0.132361412,-0.185354739,-0.973716617,-0.001335427,-0.006920323,0.006110907,-0.031072304,0.006754369,0.008477906,0.18643285,-0.135106116,0.020182467
-0.132361412,-0.185354739,-0.973716617,-0.001335427,-0.006920323,0.006110907,-0.031072304,0.006754369,0.008477906,0.18643285,-0.135106116,0.020182467
-0.132361412,-0.185354739,-0.973716617,-0.001335427,-0.006920323,0.006110907,-0.031072304,0.006754369,0.008477906,0.18643285,-0.135106116,0.020182467
-0.132361412,-0.185354739,-0.973716617,-0.001335427,-0.006920323,0.006110907,-0.031072304,0.006754369,0.008477906,0.18643285,-0.135106116,0.020182467
-0.132361412,-0.185354739,-0.973716617,-0.001335427,-0.006920323,0.006110907,-0.031072304,0.006754369,0.008477906,0.18643285,-0.135106116,0.020182467
-0.132287517,-0.184916601,-0.973809958,0.00802061,-0.002994463,0.009881616,-0.018264867,0.00453414,-0.000784728,0.185986993,-0.135018819,0.020219008
-0.132287517,-0.184916601,-0.973809958,0.00802061,-0.002994463,0.009881616,-0.018264867,0.00453414,-0.000784728,0.185986993,-0.135018819,0.020219008
-0.132287517,-0.184916601,-0.973809958,0.00802061,-0.002994463,0.009881616,-0.018264867,0.00453414,-0.000784728,0.185986993,-0.135018819,0.020219008
-0.132287517,-0.184916601,-0.973809958,0.00802061,-0.002994463,0.009881616,-0.018264867,0.00453414,-0.000784728,0.185986993,-0.135018819,0.020219008
-0.132287517,-0.184916601,-0.973809958,0.00802061,-0.002994463,0.009881616,-0.018264867,0.00453414,-0.000784728,0.185986993,-0.135018819,0.020219008
-0.132180586,-0.184338704,-0.973934054,0.006174177,-0.004564166,0.010112524,-0.035345275,6.27E-05,-0.006245646,0.185398991,-0.134894014,0.020181132
-0.132180586,-0.184338704,-0.973934054,0.006174177,-0.004564166,0.010112524,-0.035345275,6.27E-05,-0.006245646,0.185398991,-0.134894014,0.020181132
-0.132212311,-0.183475062,-0.974092841,0.002665892,0.011799395,0.011110485,-0.053897921,0.000246996,-0.003483149,0.184520363,-0.134904278,0.019743012
-0.132212311,-0.183475062,-0.974092841,0.002665892,0.011799395,0.011110485,-0.053897921,0.000246996,-0.003483149,0.184520363,-0.134904278,0.019743012
-0.132212311,-0.183475062,-0.974092841,0.002665892,0.011799395,0.011110485,-0.053897921,0.000246996,-0.003483149,0.184520363,-0.134904278,0.019743012
-0.132212311,-0.183475062,-0.974092841,0.002665892,0.011799395,0.011110485,-0.053897921,0.000246996,-0.003483149,0.184520363,-0.134904278,0.019743012
-0.132212311,-0.183475062,-0.974092841,0.002665892,0.011799395,0.011110485,-0.053897921,0.000246996,-0.003483149,0.184520363,-0.134904278,0.019743012
-0.132212311,-0.183475062,-0.974092841,0.002665892,0.011799395,0.011110485,-0.053897921,0.000246996,-0.003483149,0.184520363,-0.134904278,0.019743012
-0.132215902,-0.182384118,-0.974297166,0.006865636,0.008343324,0.015816212,-0.070199862,0.00292823,-0.009401758,0.183410694,-0.134879944,0.019641398
-0.132215902,-0.182384118,-0.974297166,0.006865636,0.008343324,0.015816212,-0.070199862,0.00292823,-0.009401758,0.183410694,-0.134879944,0.019641398
-0.132215902,-0.182384118,-0.974297166,0.006865636,0.008343324,0.015816212,-0.070199862,0.00292823,-0.009401758,0.183410694,-0.134879944,0.019641398
-0.132215902,-0.182384118,-0.974297166,0.006865636,0.008343324,0.015816212,-0.070199862,0.00292823,-0.009401758,0.183410694,-0.134879944,0.019641398
-0.132044733,-0.181367755,-0.974510074,-0.0033153,-0.002957448,0.015357733,-0.053928215,-2.38E-05,-0.017176857,0.18237709,-0.134678348,0.019096929
-0.132044733,-0.181367755,-0.974510074,-0.0033153,-0.002957448,0.015357733,-0.053928215,-2.38E-05,-0.017176857,0.18237709,-0.134678348,0.019096929
-0.132044733,-0.181367755,-0.974510074,-0.0033153,-0.002957448,0.015357733,-0.053928215,-2.38E-05,-0.017176857,0.18237709,-0.134678348,0.019096929
-0.132044733,-0.181367755,-0.974510074,-0.0033153,-0.002957448,0.015357733,-0.053928215,-2.38E-05,-0.017176857,0.18237709,-0.134678348,0.019096929
-0.132044733,-0.181367755,-0.974510074,-0.0033153,-0.002957448,0.015357733,-0.053928215,-2.38E-05,-0.017176857,0.18237709,-0.134678348,0.019096929
-0.13184981,-0.18083404,-0.974635661,0.000335023,-0.003521651,0.016429365,-0.031358924,-0.001088337,-0.008496284,0.181834411,-0.134464805,0.018749818
-0.13184981,-0.18083404,-0.974635661,0.000335023,-0.003521651,0.016429365,-0.031358924,-0.001088337,-0.008496284,0.181834411,-0.134464805,0.018749818
-0.13184981,-0.18083404,-0.974635661,0.000335023,-0.003521651,0.016429365,-0.031358924,-0.001088337,-0.008496284,0.181834411,-0.134464805,0.018749818
-0.13184981,-0.18083404,-0.974635661,0.000335023,-0.003521651,0.016429365,-0.031358924,-0.001088337,-0.008496284,0.181834411,-0.134464805,0.018749818
-0.13184981,-0.18083404,-0.974635661,0.000335023,-0.003521651,0.016429365,-0.031358924,-0.001088337,-0.008496284,0.181834411,-0.134464805,0.018749818
-0.13184981,-0.18083404,-0.974635661,0.000335023,-0.003521651,0.016429365,-0.031358924,-0.001088337,-0.008496284,0.181834411,-0.134464805,0.018749818
-0.131827056,-0.180561051,-0.974689364,-0.000359103,0.002293617,0.014941931,0.002451929,-0.008188519,-0.006734229,0.181556842,-0.134434569,0.018695897
-0.131827056,-0.180561051,-0.974689364,-0.000359103,0.002293617,0.014941931,0.002451929,-0.008188519,-0.006734229,0.181556842,-0.134434569,0.018695897
-0.131827056,-0.180561051,-0.974689364,-0.000359103,0.002293617,0.014941931,0.002451929,-0.008188519,-0.006734229,0.181556842,-0.134434569,0.018695897
-0.131827056,-0.180561051,-0.974689364,-0.000359103,0.002293617,0.014941931,0.002451929,-0.008188519,-0.006734229,0.181556842,-0.134434569,0.018695897
-0.131882101,-0.180192709,-0.974750102,-0.005415753,-0.014630511,0.020724654,-0.034719672,-0.000986798,0.003291507,0.181182359,-0.134481749,0.018565472
-0.131882101,-0.180192709,-0.974750102,-0.005415753,-0.014630511,0.020724654,-0.034719672,-0.000986798,0.003291507,0.181182359,-0.134481749,0.018565472
-0.131882101,-0.180192709,-0.974750102,-0.005415753,-0.014630511,0.020724654,-0.034719672,-0.000986798,0.003291507,0.181182359,-0.134481749,0.018565472
-0.131882101,-0.180192709,-0.974750102,-0.005415753,-0.014630511,0.020724654,-0.034719672,-0.000986798,0.003291507,0.181182359,-0.134481749,0.018565472
-0.131882101,-0.180192709,-0.974750102,-0.005415753,-0.014630511,0.020724654,-0.034719672,-0.000986798,0.003291507,0.181182359,-0.134481749,0.018565472
-0.131882101,-0.180192709,-0.974750102,-0.005415753,-0.014630511,0.020724654,-0.034719672,-0.000986798,0.003291507,0.181182359,-0.134481749,0.018565472
-0.131882101,-0.180192709,-0.974750102,-0.005415753,-0.014630511,0.020724654,-0.034719672,-0.000986798,0.003291507,0.181182359,-0.134481749,0.018565472
-0.131886184,-0.179387569,-0.97489804,-0.007273242,-0.012902692,0.018507481,-0.047395896,0.009226279,0.002305444,0.180363886,-0.1344657,0.018473351
-0.131886184,-0.179387569,-0.97489804,-0.007273242,-0.012902692,0.018507481,-0.047395896,0.009226279,0.002305444,0.180363886,-0.1344657,0.018473351
-0.131886184,-0.179387569,-0.97489804,-0.007273242,-0.012902692,0.018507481,-0.047395896,0.009226279,0.002305444,0.180363886,-0.1344657,0.018473351
-0.131886184,-0.179387569,-0.97489804,-0.007273242,-0.012902692,0.018507481,-0.047395896,0.009226279,0.002305444,0.180363886,-0.1344657,0.018473351
-0.131886184,-0.179387569,-0.97489804,-0.007273242,-0.012902692,0.018507481,-0.047395896,0.009226279,0.002305444,0.180363886,-0.1344657,0.018473351
-0.131886184,-0.179387569,-0.97489804,-0.007273242,-0.012902692,0.018507481,-0.047395896,0.009226279,0.002305444,0.180363886,-0.1344657,0.018473351
-0.131767333,-0.178685084,-0.975043058,-0.00755994,0.003042161,0.012152314,-0.037694864,0.00980226,0.008107941,0.179649872,-0.134326237,0.018332615
-0.131767333,-0.178685084,-0.975043058,-0.00755994,0.003042161,0.012152314,-0.037694864,0.00980226,0.008107941,0.179649872,-0.134326237,0.018332615
-0.131767333,-0.178685084,-0.975043058,-0.00755994,0.003042161,0.012152314,-0.037694864,0.00980226,0.008107941,0.179649872,-0.134326237,0.018332615
-0.131672993,-0.178456768,-0.975097656,0.000631243,0.020575076,0.012390018,0.009072082,0.008614491,0.009705464,0.179417823,-0.134223783,0.018410482
-0.131672993,-0.178456768,-0.975097656,0.000631243,0.020575076,0.012390018,0.009072082,0.008614491,0.009705464,0.179417823,-0.134223783,0.018410482
-0.131672993,-0.178456768,-0.975097656,0.000631243,0.020575076,0.012390018,0.009072082,0.008614491,0.009705464,0.179417823,-0.134223783,0.018410482
-0.131672993,-0.178456768,-0.975097656,0.000631243,0.020575076,0.012390018,0.009072082,0.008614491,0.009705464,0.179417823,-0.134223783,0.018410482
-0.131672993,-0.178456768,-0.975097656,0.000631243,0.020575076,0.012390018,0.009072082,0.008614491,0.009705464,0.179417823,-0.134223783,0.018410482
-0.131672993,-0.178456768,-0.975097656,0.000631243,0.020575076,0.012390018,0.009072082,0.008614491,0.009705464,0.179417823,-0.134223783,0.018410482
-0.131672993,-0.178456768,-0.975097656,0.000631243,0.020575076,0.012390018,0.009072082,0.008614491,0.009705464,0.179417823,-0.134223783,0.018410482
-0.131672993,-0.178456768,-0.975097656,0.000631243,0.020575076,0.012390018,0.009072082,0.008614491,0.009705464,0.179417823,-0.134223783,0.018410482
-0.131672993,-0.178456768,-0.975097656,0.000631243,0.020575076,0.012390018,0.009072082,0.008614491,0.009705464,0.179417823,-0.134223783,0.018410482
-0.131718725,-0.179035142,-0.974985421,0.001851901,0.020146355,0.011896312,0.023273734,0.007246569,0.03881653,0.180005656,-0.134285117,0.019016384
-0.131718725,-0.179035142,-0.974985421,0.001851901,0.020146355,0.011896312,0.023273734,0.007246569,0.03881653,0.180005656,-0.134285117,0.019016384
-0.131718725,-0.179035142,-0.974985421,0.001851901,0.020146355,0.011896312,0.023273734,0.007246569,0.03881653,0.180005656,-0.134285117,0.019016384
-0.131718725,-0.179035142,-0.974985421,0.001851901,0.020146355,0.011896312,0.023273734,0.007246569,0.03881653,0.180005656,-0.134285117,0.019016384
-0.131718725,-0.179035142,-0.974985421,0.001851901,0.020146355,0.011896312,0.023273734,0.007246569,0.03881653,0.180005656,-0.134285117,0.019016384
-0.131718725,-0.179035142,-0.974985421,0.001851901,0.020146355,0.011896312,0.023273734,0.007246569,0.03881653,0.180005656,-0.134285117,0.019016384
-0.131887063,-0.179785177,-0.974824667,0.007269248,-0.00336507,0.012437463,0.02278675,0.006100054,0.027458044,0.180768064,-0.134476578,0.019850648
-0.131887063,-0.179785177,-0.974824667,0.007269248,-0.00336507,0.012437463,0.02278675,0.006100054,0.027458044,0.180768064,-0.134476578,0.019850648
-0.131887063,-0.179785177,-0.974824667,0.007269248,-0.00336507,0.012437463,0.02278675,0.006100054,0.027458044,0.180768064,-0.134476578,0.019850648
-0.132090777,-0.180050433,-0.974748135,0.010433182,-0.007524863,0.013993561,-0.000228782,-0.000237287,0.016833521,0.181037718,-0.134692249,0.020325481
-0.132090777,-0.180050433,-0.974748135,0.010433182,-0.007524863,0.013993561,-0.000228782,-0.000237287,0.016833521,0.181037718,-0.134692249,0.020325481
-0.132090777,-0.180050433,-0.974748135,0.010433182,-0.007524863,0.013993561,-0.000228782,-0.000237287,0.016833521,0.181037718,-0.134692249,0.020325481
-0.132090777,-0.180050433,-0.974748135,0.010433182,-0.007524863,0.013993561,-0.000228782,-0.000237287,0.016833521,0.181037718,-0.134692249,0.020325481
-0.132090777,-0.180050433,-0.974748135,0.010433182,-0.007524863,0.013993561,-0.000228782,-0.000237287,0.016833521,0.181037718,-0.134692249,0.020325481
-0.132090777,-0.180050433,-0.974748135,0.010433182,-0.007524863,0.013993561,-0.000228782,-0.000237287,0.016833521,0.181037718,-0.134692249,0.020325481
-0.132237464,-0.179455996,-0.97483784,0.010869816,-0.00383155,0.013335645,-0.029534169,-0.002683122,0.012557176,0.180433435,-0.134827756,0.020615016
-0.132237464,-0.179455996,-0.97483784,0.010869816,-0.00383155,0.013335645,-0.029534169,-0.002683122,0.012557176,0.180433435,-0.134827756,0.020615016
-0.132237464,-0.179455996,-0.97483784,0.010869816,-0.00383155,0.013335645,-0.029534169,-0.002683122,0.012557176,0.180433435,-0.134827756,0.020615016
-0.132237464,-0.179455996,-0.97483784,0.010869816,-0.00383155,0.013335645,-0.029534169,-0.002683122,0.012557176,0.180433435,-0.134827756,0.020615016
-0.132237464,-0.179455996,-0.97483784,0.010869816,-0.00383155,0.013335645,-0.029534169,-0.002683122,0.012557176,0.180433435,-0.134827756,0.020615016
-0.132237464,-0.179455996,-0.97483784,0.010869816,-0.00383155,0.013335645,-0.029534169,-0.002683122,0.012557176,0.180433435,-0.134827756,0.020615016
-0.132237464,-0.179455996,-0.97483784,0.010869816,-0.00383155,0.013335645,-0.029534169,-0.002683122,0.012557176,0.180433435,-0.134827756,0.020615016
-0.132237464,-0.179455996,-0.97483784,0.010869816,-0.00383155,0.013335645,-0.029534169,-0.002683122,0.012557176,0.180433435,-0.134827756,0.020615016
-0.132285669,-0.178290084,-0.975045204,0.005028129,0.000404149,0.007561564,-0.027345862,0.005447326,0.013311863,0.179248412,-0.13484798,0.020817114
-0.132285669,-0.178290084,-0.975045204,0.005028129,0.000404149,0.007561564,-0.027345862,0.005447326,0.013311863,0.179248412,-0.13484798,0.020817114
-0.132285669,-0.178290084,-0.975045204,0.005028129,0.000404149,0.007561564,-0.027345862,0.005447326,0.013311863,0.179248412,-0.13484798,0.020817114
-0.132285669,-0.178290084,-0.975045204,0.005028129,0.000404149,0.007561564,-0.027345862,0.005447326,0.013311863,0.179248412,-0.13484798,0.020817114
-0.132285669,-0.178290084,-0.975045204,0.005028129,0.000404149,0.007561564,-0.027345862,0.005447326,0.013311863,0.179248412,-0.13484798,0.020817114
-0.132285669,-0.178290084,-0.975045204,0.005028129,0.000404149,0.007561564,-0.027345862,0.005447326,0.013311863,0.179248412,-0.13484798,0.020817114
-0.132285669,-0.178290084,-0.975045204,0.005028129,0.000404149,0.007561564,-0.027345862,0.005447326,0.013311863,0.179248412,-0.13484798,0.020817114
-0.132285669,-0.178290084,-0.975045204,0.005028129,0.000404149,0.007561564,-0.027345862,0.005447326,0.013311863,0.179248412,-0.13484798,0.020817114
-0.132285669,-0.178290084,-0.975045204,0.005028129,0.000404149,0.007561564,-0.027345862,0.005447326,0.013311863,0.179248412,-0.13484798,0.020817114
-0.132148951,-0.178076029,-0.975102842,-0.000510171,0.014747024,0.009846985,0.009016475,0.001068568,0.0170062,0.179030882,-0.134702416,0.021058588
-0.132148951,-0.178076029,-0.975102842,-0.000510171,0.014747024,0.009846985,0.009016475,0.001068568,0.0170062,0.179030882,-0.134702416,0.021058588
-0.132148951,-0.178076029,-0.975102842,-0.000510171,0.014747024,0.009846985,0.009016475,0.001068568,0.0170062,0.179030882,-0.134702416,0.021058588
-0.132067963,-0.178443521,-0.975046635,0.004215345,0.006233916,0.012430549,0.002255587,-0.004820551,0.01425361,0.17940436,-0.134628526,0.02136266
-0.132067963,-0.178443521,-0.975046635,0.004215345,0.006233916,0.012430549,0.002255587,-0.004820551,0.01425361,0.17940436,-0.134628526,0.02136266
-0.132067963,-0.178443521,-0.975046635,0.004215345,0.006233916,0.012430549,0.002255587,-0.004820551,0.01425361,0.17940436,-0.134628526,0.02136266
-0.132067963,-0.178443521,-0.975046635,0.004215345,0.006233916,0.012430549,0.002255587,-0.004820551,0.01425361,0.17940436,-0.134628526,0.02136266
-0.132067963,-0.178443521,-0.975046635,0.004215345,0.006233916,0.012430549,0.002255587,-0.004820551,0.01425361,0.17940436,-0.134628526,0.02136266
-0.132067963,-0.178443521,-0.975046635,0.004215345,0.006233916,0.012430549,0.002255587,-0.004820551,0.01425361,0.17940436,-0.134628526,0.02136266
-0.132008478,-0.178168893,-0.975104928,0.005269766,-0.002402529,0.010154188,-0.042309791,-0.005075912,0.003350736,0.179125259,-0.134560672,0.021457545
-0.132008478,-0.178168893,-0.975104928,0.005269766,-0.002402529,0.010154188,-0.042309791,-0.005075912,0.003350736,0.179125259,-0.134560672,0.021457545
-0.132008478,-0.178168893,-0.975104928,0.005269766,-0.002402529,0.010154188,-0.042309791,-0.005075912,0.003350736,0.179125259,-0.134560672,0.021457545
-0.132008478,-0.178168893,-0.975104928,0.005269766,-0.002402529,0.010154188,-0.042309791,-0.005075912,0.003350736,0.179125259,-0.134560672,0.021457545
-0.132008478,-0.178168893,-0.975104928,0.005269766,-0.002402529,0.010154188,-0.042309791,-0.005075912,0.003350736,0.179125259,-0.134560672,0.021457545
-0.132008478,-0.178168893,-0.975104928,0.005269766,-0.002402529,0.010154188,-0.042309791,-0.005075912,0.003350736,0.179125259,-0.134560672,0.021457545
-0.132008478,-0.178168893,-0.975104928,0.005269766,-0.002402529,0.010154188,-0.042309791,-0.005075912,0.003350736,0.179125259,-0.134560672,0.021457545
-0.132008478,-0.178168893,-0.975104928,0.005269766,-0.002402529,0.010154188,-0.042309791,-0.005075912,0.003350736,0.179125259,-0.134560672,0.021457545
-0.132008478,-0.178168893,-0.975104928,0.005269766,-0.002402529,0.010154188,-0.042309791,-0.005075912,0.003350736,0.179125259,-0.134560672,0.021457545
-0.131956518,-0.177166402,-0.97529459,0.001998201,-0.001543477,0.012464881,-0.056319695,-0.001735655,-0.00899653,0.178106556,-0.134482503,0.021255928
-0.131956518,-0.177166402,-0.97529459,0.001998201,-0.001543477,0.012464881,-0.056319695,-0.001735655,-0.00899653,0.178106556,-0.134482503,0.021255928
-0.131956518,-0.177166402,-0.97529459,0.001998201,-0.001543477,0.012464881,-0.056319695,-0.001735655,-0.00899653,0.178106556,-0.134482503,0.021255928
-0.131956518,-0.177166402,-0.97529459,0.001998201,-0.001543477,0.012464881,-0.056319695,-0.001735655,-0.00899653,0.178106556,-0.134482503,0.021255928
-0.131956518,-0.177166402,-0.97529459,0.001998201,-0.001543477,0.012464881,-0.056319695,-0.001735655,-0.00899653,0.178106556,-0.134482503,0.021255928
-0.131956518,-0.177166402,-0.97529459,0.001998201,-0.001543477,0.012464881,-0.056319695,-0.001735655,-0.00899653,0.178106556,-0.134482503,0.021255928
-0.132022664,-0.176173791,-0.975465417,0.005985856,0.005795211,0.01638937,-0.031389657,-0.006639479,-0.008781401,0.177098084,-0.134525822,0.020945996
-0.132022664,-0.176173791,-0.975465417,0.005985856,0.005795211,0.01638937,-0.031389657,-0.006639479,-0.008781401,0.177098084,-0.134525822,0.020945996
-0.132022664,-0.176173791,-0.975465417,0.005985856,0.005795211,0.01638937,-0.031389657,-0.006639479,-0.008781401,0.177098084,-0.134525822,0.020945996
-0.132022664,-0.176173791,-0.975465417,0.005985856,0.005795211,0.01638937,-0.031389657,-0.006639479,-0.008781401,0.177098084,-0.134525822,0.020945996
-0.132022664,-0.176173791,-0.975465417,0.005985856,0.005795211,0.01638937,-0.031389657,-0.006639479,-0.008781401,0.177098084,-0.134525822,0.020945996
-0.132180482,-0.175618619,-0.975544155,0.004144773,0.007025331,0.0148049,-0.014468731,-0.011788169,-0.007817337,0.176534125,-0.134673954,0.020698318
-0.132180482,-0.175618619,-0.975544155,0.004144773,0.007025331,0.0148049,-0.014468731,-0.011788169,-0.007817337,0.176534125,-0.134673954,0.020698318
-0.132180482,-0.175618619,-0.975544155,0.004144773,0.007025331,0.0148049,-0.014468731,-0.011788169,-0.007817337,0.176534125,-0.134673954,0.020698318
-0.132180482,-0.175618619,-0.975544155,0.004144773,0.007025331,0.0148049,-0.014468731,-0.011788169,-0.007817337,0.176534125,-0.134673954,0.020698318
-0.132180482,-0.175618619,-0.975544155,0.004144773,0.007025331,0.0148049,-0.014468731,-0.011788169,-0.007817337,0.176534125,-0.134673954,0.020698318
-0.132295191,-0.175614059,-0.975529432,-0.000928506,0.001710713,0.014362931,-0.004844413,-0.011653025,-0.000501687,0.176529494,-0.134791432,0.020533291
-0.132295191,-0.175614059,-0.975529432,-0.000928506,0.001710713,0.014362931,-0.004844413,-0.011653025,-0.000501687,0.176529494,-0.134791432,0.020533291
-0.132295191,-0.175614059,-0.975529432,-0.000928506,0.001710713,0.014362931,-0.004844413,-0.011653025,-0.000501687,0.176529494,-0.134791432,0.020533291
-0.132295191,-0.175614059,-0.975529432,-0.000928506,0.001710713,0.014362931,-0.004844413,-0.011653025,-0.000501687,0.176529494,-0.134791432,0.020533291
-0.132295191,-0.175614059,-0.975529432,-0.000928506,0.001710713,0.014362931,-0.004844413,-0.011653025,-0.000501687,0.176529494,-0.134791432,0.020533291
-0.132295191,-0.175614059,-0.975529432,-0.000928506,0.001710713,0.014362931,-0.004844413,-0.011653025,-0.000501687,0.176529494,-0.134791432,0.020533291
-0.132295191,-0.175614059,-0.975529432,-0.000928506,0.001710713,0.014362931,-0.004844413,-0.011653025,-0.000501687,0.176529494,-0.134791432,0.020533291
-0.132295191,-0.175614059,-0.975529432,-0.000928506,0.001710713,0.014362931,-0.004844413,-0.011653025,-0.000501687,0.176529494,-0.134791432,0.020533291
-0.132456571,-0.175405398,-0.975545108,-0.004993856,-0.008690879,0.012516975,-0.034079745,-0.005010205,0.002290584,0.176317533,-0.134951722,0.02053823
-0.132456571,-0.175405398,-0.975545108,-0.004993856,-0.008690879,0.012516975,-0.034079745,-0.005010205,0.002290584,0.176317533,-0.134951722,0.02053823
-0.132456571,-0.175405398,-0.975545108,-0.004993856,-0.008690879,0.012516975,-0.034079745,-0.005010205,0.002290584,0.176317533,-0.134951722,0.02053823
-0.132456571,-0.175405398,-0.975545108,-0.004993856,-0.008690879,0.012516975,-0.034079745,-0.005010205,0.002290584,0.176317533,-0.134951722,0.02053823
-0.132456571,-0.175405398,-0.975545108,-0.004993856,-0.008690879,0.012516975,-0.034079745,-0.005010205,0.002290584,0.176317533,-0.134951722,0.02053823
-0.132456571,-0.175405398,-0.975545108,-0.004993856,-0.008690879,0.012516975,-0.034079745,-0.005010205,0.002290584,0.176317533,-0.134951722,0.02053823
-0.132456571,-0.175405398,-0.975545108,-0.004993856,-0.008690879,0.012516975,-0.034079745,-0.005010205,0.002290584,0.176317533,-0.134951722,0.02053823
-0.132423759,-0.174210742,-0.975763559,-0.002066419,-0.013257682,0.016489148,-0.083031371,0.003396632,-0.000653807,0.175104202,-0.134888852,0.020369968
-0.132423759,-0.174210742,-0.975763559,-0.002066419,-0.013257682,0.016489148,-0.083031371,0.003396632,-0.000653807,0.175104202,-0.134888852,0.020369968
-0.132423759,-0.174210742,-0.975763559,-0.002066419,-0.013257682,0.016489148,-0.083031371,0.003396632,-0.000653807,0.175104202,-0.134888852,0.020369968
-0.132423759,-0.174210742,-0.975763559,-0.002066419,-0.013257682,0.016489148,-0.083031371,0.003396632,-0.000653807,0.175104202,-0.134888852,0.020369968
-0.132423759,-0.174210742,-0.975763559,-0.002066419,-0.013257682,0.016489148,-0.083031371,0.003396632,-0.000653807,0.175104202,-0.134888852,0.020369968
-0.132228941,-0.172611147,-0.976074219,0.001233056,0.00017266,0.013473392,-0.070341483,0.002610721,-0.006665892,0.173479993,-0.134650447,0.020028716
-0.132228941,-0.172611147,-0.976074219,0.001233056,0.00017266,0.013473392,-0.070341483,0.002610721,-0.006665892,0.173479993,-0.134650447,0.020028716
-0.132228941,-0.172611147,-0.976074219,0.001233056,0.00017266,0.013473392,-0.070341483,0.002610721,-0.006665892,0.173479993,-0.134650447,0.020028716
-0.132228941,-0.172611147,-0.976074219,0.001233056,0.00017266,0.013473392,-0.070341483,0.002610721,-0.006665892,0.173479993,-0.134650447,0.020028716
-0.132228941,-0.172611147,-0.976074219,0.001233056,0.00017266,0.013473392,-0.070341483,0.002610721,-0.006665892,0.173479993,-0.134650447,0.020028716
-0.132298008,-0.171537593,-0.976254106,0.006291747,0.010176986,0.01488924,-0.051968623,-0.006065108,-0.007247899,0.172390191,-0.134695413,0.019700838
-0.132298008,-0.171537593,-0.976254106,0.006291747,0.010176986,0.01488924,-0.051968623,-0.006065108,-0.007247899,0.172390191,-0.134695413,0.019700838
-0.132298008,-0.171537593,-0.976254106,0.006291747,0.010176986,0.01488924,-0.051968623,-0.006065108,-0.007247899,0.172390191,-0.134695413,0.019700838
-0.132298008,-0.171537593,-0.976254106,0.006291747,0.010176986,0.01488924,-0.051968623,-0.006065108,-0.007247899,0.172390191,-0.134695413,0.019700838
-0.132298008,-0.171537593,-0.976254106,0.006291747,0.010176986,0.01488924,-0.051968623,-0.006065108,-0.007247899,0.172390191,-0.134695413,0.019700838
-0.132298008,-0.171537593,-0.976254106,0.006291747,0.010176986,0.01488924,-0.051968623,-0.006065108,-0.007247899,0.172390191,-0.134695413,0.019700838
-0.132298008,-0.171537593,-0.976254106,0.006291747,0.010176986,0.01488924,-0.051968623,-0.006065108,-0.007247899,0.172390191,-0.134695413,0.019700838
-0.132728621,-0.170333683,-0.976406455,0.009224877,0.003159538,0.013103664,-0.082220331,-0.002517473,-0.009396804,0.171168295,-0.135107693,0.018833297
-0.132728621,-0.170333683,-0.976406455,0.009224877,0.003159538,0.013103664,-0.082220331,-0.002517473,-0.009396804,0.171168295,-0.135107693,0.018833297
-0.132728621,-0.170333683,-0.976406455,0.009224877,0.003159538,0.013103664,-0.082220331,-0.002517473,-0.009396804,0.171168295,-0.135107693,0.018833297
-0.132745057,-0.168288723,-0.976758778,0.00347349,-0.011748597,0.010038018,-0.152420759,-7.27E-05,-0.003441549,0.169093367,-0.135076071,0.018369797
-0.132745057,-0.168288723,-0.976758778,0.00347349,-0.011748597,0.010038018,-0.152420759,-7.27E-05,-0.003441549,0.169093367,-0.135076071,0.018369797
-0.132745057,-0.168288723,-0.976758778,0.00347349,-0.011748597,0.010038018,-0.152420759,-7.27E-05,-0.003441549,0.169093367,-0.135076071,0.018369797
-0.132745057,-0.168288723,-0.976758778,0.00347349,-0.011748597,0.010038018,-0.152420759,-7.27E-05,-0.003441549,0.169093367,-0.135076071,0.018369797
-0.132745057,-0.168288723,-0.976758778,0.00347349,-0.011748597,0.010038018,-0.152420759,-7.27E-05,-0.003441549,0.169093367,-0.135076071,0.018369797
-0.132745057,-0.168288723,-0.976758778,0.00347349,-0.011748597,0.010038018,-0.152420759,-7.27E-05,-0.003441549,0.169093367,-0.135076071,0.018369797
-0.132586271,-0.164882526,-0.977361083,0.002719581,-0.020831123,0.015752017,-0.180600584,0.005379173,-0.016508562,0.16563891,-0.134834321,0.017691402
-0.132586271,-0.164882526,-0.977361083,0.002719581,-0.020831123,0.015752017,-0.180600584,0.005379173,-0.016508562,0.16563891,-0.134834321,0.017691402
-0.132586271,-0.164882526,-0.977361083,0.002719581,-0.020831123,0.015752017,-0.180600584,0.005379173,-0.016508562,0.16563891,-0.134834321,0.017691402
-0.132586271,-0.164882526,-0.977361083,0.002719581,-0.020831123,0.015752017,-0.180600584,0.005379173,-0.016508562,0.16563891,-0.134834321,0.017691402
-0.132586271,-0.164882526,-0.977361083,0.002719581,-0.020831123,0.015752017,-0.180600584,0.005379173,-0.016508562,0.16563891,-0.134834321,0.017691402
-0.132586271,-0.164882526,-0.977361083,0.002719581,-0.020831123,0.015752017,-0.180600584,0.005379173,-0.016508562,0.16563891,-0.134834321,0.017691402
-0.132286921,-0.161769301,-0.977921724,0.000573918,0.006710544,0.012726843,-0.127497226,0.003445791,-0.018435415,0.162483305,-0.134457348,0.016930178
-0.132286921,-0.161769301,-0.977921724,0.000573918,0.006710544,0.012726843,-0.127497226,0.003445791,-0.018435415,0.162483305,-0.134457348,0.016930178
-0.132286921,-0.161769301,-0.977921724,0.000573918,0.006710544,0.012726843,-0.127497226,0.003445791,-0.018435415,0.162483305,-0.134457348,0.016930178
-0.132053956,-0.159375697,-0.978346109,-0.006144077,0.009260729,0.010542035,-0.139750883,0.000778212,0.01246908,0.160058232,-0.134165873,0.016484013
-0.132053956,-0.159375697,-0.978346109,-0.006144077,0.009260729,0.010542035,-0.139750883,0.000778212,0.01246908,0.160058232,-0.134165873,0.016484013
-0.132053956,-0.159375697,-0.978346109,-0.006144077,0.009260729,0.010542035,-0.139750883,0.000778212,0.01246908,0.160058232,-0.134165873,0.016484013
-0.132053956,-0.159375697,-0.978346109,-0.006144077,0.009260729,0.010542035,-0.139750883,0.000778212,0.01246908,0.160058232,-0.134165873,0.016484013
-0.132053956,-0.159375697,-0.978346109,-0.006144077,0.009260729,0.010542035,-0.139750883,0.000778212,0.01246908,0.160058232,-0.134165873,0.016484013
-0.132053956,-0.159375697,-0.978346109,-0.006144077,0.009260729,0.010542035,-0.139750883,0.000778212,0.01246908,0.160058232,-0.134165873,0.016484013
-0.131991684,-0.156731069,-0.9787817,-0.011089131,-0.003302082,0.016653836,-0.157272026,0.003418651,0.023144521,0.157379941,-0.134044393,0.016524949
-0.131991684,-0.156731069,-0.9787817,-0.011089131,-0.003302082,0.016653836,-0.157272026,0.003418651,0.023144521,0.157379941,-0.134044393,0.016524949
-0.131991684,-0.156731069,-0.9787817,-0.011089131,-0.003302082,0.016653836,-0.157272026,0.003418651,0.023144521,0.157379941,-0.134044393,0.016524949
-0.131991684,-0.156731069,-0.9787817,-0.011089131,-0.003302082,0.016653836,-0.157272026,0.003418651,0.023144521,0.157379941,-0.134044393,0.016524949
-0.131991684,-0.156731069,-0.9787817,-0.011089131,-0.003302082,0.016653836,-0.157272026,0.003418651,0.023144521,0.157379941,-0.134044393,0.016524949
-0.131991684,-0.156731069,-0.9787817,-0.011089131,-0.003302082,0.016653836,-0.157272026,0.003418651,0.023144521,0.157379941,-0.134044393,0.016524949
-0.131991684,-0.156731069,-0.9787817,-0.011089131,-0.003302082,0.016653836,-0.157272026,0.003418651,0.023144521,0.157379941,-0.134044393,0.016524949
-0.131991684,-0.156731069,-0.9787817,-0.011089131,-0.003302082,0.016653836,-0.157272026,0.003418651,0.023144521,0.157379941,-0.134044393,0.016524949
-0.132036299,-0.154489338,-0.979131997,-0.004101694,-0.005421683,0.020010114,-0.131891608,0.002597102,0.02604321,0.15511057,-0.134041767,0.016623411
-0.132036299,-0.154489338,-0.979131997,-0.004101694,-0.005421683,0.020010114,-0.131891608,0.002597102,0.02604321,0.15511057,-0.134041767,0.016623411
-0.132036299,-0.154489338,-0.979131997,-0.004101694,-0.005421683,0.020010114,-0.131891608,0.002597102,0.02604321,0.15511057,-0.134041767,0.016623411
-0.132118076,-0.152430907,-0.97944355,-0.00258559,-0.000903592,0.016140759,-0.110975295,-0.001987638,0.030158274,0.153027463,-0.134081634,0.016867287
-0.132189915,-0.15022555,-0.979774535,-0.005031481,-0.001293227,0.013999879,-0.096309483,0.00995141,0.035791341,0.150796408,-0.134108893,0.017304574
-0.132189915,-0.15022555,-0.979774535,-0.005031481,-0.001293227,0.013999879,-0.096309483,0.00995141,0.035791341,0.150796408,-0.134108893,0.017304574
-0.132189915,-0.15022555,-0.979774535,-0.005031481,-0.001293227,0.013999879,-0.096309483,0.00995141,0.035791341,0.150796408,-0.134108893,0.017304574
-0.132189915,-0.15022555,-0.979774535,-0.005031481,-0.001293227,0.013999879,-0.096309483,0.00995141,0.035791341,0.150796408,-0.134108893,0.017304574
-0.132189915,-0.15022555,-0.979774535,-0.005031481,-0.001293227,0.013999879,-0.096309483,0.00995141,0.035791341,0.150796408,-0.134108893,0.017304574
-0.132189915,-0.15022555,-0.979774535,-0.005031481,-0.001293227,0.013999879,-0.096309483,0.00995141,0.035791341,0.150796408,-0.134108893,0.017304574
-0.132189915,-0.15022555,-0.979774535,-0.005031481,-0.001293227,0.013999879,-0.096309483,0.00995141,0.035791341,0.150796408,-0.134108893,0.017304574
-0.132295966,-0.149044678,-0.979940534,-0.001324326,0.019758001,0.012929916,-0.026354525,0.010897558,0.042310387,0.149602094,-0.134192734,0.017877698
-0.132295966,-0.149044678,-0.979940534,-0.001324326,0.019758001,0.012929916,-0.026354525,0.010897558,0.042310387,0.149602094,-0.134192734,0.017877698
-0.132295966,-0.149044678,-0.979940534,-0.001324326,0.019758001,0.012929916,-0.026354525,0.010897558,0.042310387,0.149602094,-0.134192734,0.017877698
-0.132295966,-0.149044678,-0.979940534,-0.001324326,0.019758001,0.012929916,-0.026354525,0.010897558,0.042310387,0.149602094,-0.134192734,0.017877698
-0.132295966,-0.149044678,-0.979940534,-0.001324326,0.019758001,0.012929916,-0.026354525,0.010897558,0.042310387,0.149602094,-0.134192734,0.017877698
-0.132295966,-0.149044678,-0.979940534,-0.001324326,0.019758001,0.012929916,-0.026354525,0.010897558,0.042310387,0.149602094,-0.134192734,0.017877698
-0.132295966,-0.149044678,-0.979940534,-0.001324326,0.019758001,0.012929916,-0.026354525,0.010897558,0.042310387,0.149602094,-0.134192734,0.017877698
-0.132550091,-0.149150744,-0.979890049,-0.003313214,0.01717855,0.015366614,0.001332802,-0.00566383,0.059139863,0.149709353,-0.134454243,0.018903467
-0.132550091,-0.149150744,-0.979890049,-0.003313214,0.01717855,0.015366614,0.001332802,-0.00566383,0.059139863,0.149709353,-0.134454243,0.018903467
-0.132550091,-0.149150744,-0.979890049,-0.003313214,0.01717855,0.015366614,0.001332802,-0.00566383,0.059139863,0.149709353,-0.134454243,0.018903467
-0.132550091,-0.149150744,-0.979890049,-0.003313214,0.01717855,0.015366614,0.001332802,-0.00566383,0.059139863,0.149709353,-0.134454243,0.018903467
-0.132550091,-0.149150744,-0.979890049,-0.003313214,0.01717855,0.015366614,0.001332802,-0.00566383,0.059139863,0.149709353,-0.134454243,0.018903467
-0.132550091,-0.149150744,-0.979890049,-0.003313214,0.01717855,0.015366614,0.001332802,-0.00566383,0.059139863,0.149709353,-0.134454243,0.018903467
-0.132818058,-0.148358837,-0.979973972,-0.005990177,-0.015519485,0.011345923,-0.070893474,0.012943495,0.056351475,0.14890854,-0.134711399,0.020071999
-0.132818058,-0.148358837,-0.979973972,-0.005990177,-0.015519485,0.011345923,-0.070893474,0.012943495,0.056351475,0.14890854,-0.134711399,0.020071999
-0.132818058,-0.148358837,-0.979973972,-0.005990177,-0.015519485,0.011345923,-0.070893474,0.012943495,0.056351475,0.14890854,-0.134711399,0.020071999
-0.132694259,-0.147207707,-0.980164349,-0.002833322,0.002799615,0.01557982,-0.038976405,0.016586106,0.02895266,0.147744625,-0.134561511,0.020691659
-0.132694259,-0.147207707,-0.980164349,-0.002833322,0.002799615,0.01557982,-0.038976405,0.016586106,0.02895266,0.147744625,-0.134561511,0.020691659
-0.132694259,-0.147207707,-0.980164349,-0.002833322,0.002799615,0.01557982,-0.038976405,0.016586106,0.02895266,0.147744625,-0.134561511,0.020691659
-0.132646978,-0.14661783,-0.98025912,0.006701931,0.014248908,0.018070281,0.002727619,0.007433172,0.032769717,0.147148272,-0.134501294,0.021294325
-0.132646978,-0.14661783,-0.98025912,0.006701931,0.014248908,0.018070281,0.002727619,0.007433172,0.032769717,0.147148272,-0.134501294,0.021294325
-0.132646978,-0.14661783,-0.98025912,0.006701931,0.014248908,0.018070281,0.002727619,0.007433172,0.032769717,0.147148272,-0.134501294,0.021294325
-0.132646978,-0.14661783,-0.98025912,0.006701931,0.014248908,0.018070281,0.002727619,0.007433172,0.032769717,0.147148272,-0.134501294,0.021294325
-0.132646978,-0.14661783,-0.98025912,0.006701931,0.014248908,0.018070281,0.002727619,0.007433172,0.032769717,0.147148272,-0.134501294,0.021294325
-0.132646978,-0.14661783,-0.98025912,0.006701931,0.014248908,0.018070281,0.002727619,0.007433172,0.032769717,0.147148272,-0.134501294,0.021294325
-0.132942095,-0.146333545,-0.980261624,0.010781214,0.021594048,0.01459378,0.006278106,-0.014183622,0.039365675,0.146860902,-0.134796588,0.021953824
-0.132942095,-0.146333545,-0.980261624,0.010781214,0.021594048,0.01459378,0.006278106,-0.014183622,0.039365675,0.146860902,-0.134796588,0.021953824
-0.132942095,-0.146333545,-0.980261624,0.010781214,0.021594048,0.01459378,0.006278106,-0.014183622,0.039365675,0.146860902,-0.134796588,0.021953824
-0.132942095,-0.146333545,-0.980261624,0.010781214,0.021594048,0.01459378,0.006278106,-0.014183622,0.039365675,0.146860902,-0.134796588,0.021953824
-0.132942095,-0.146333545,-0.980261624,0.010781214,0.021594048,0.01459378,0.006278106,-0.014183622,0.039365675,0.146860902,-0.134796588,0.021953824