gravityX,gravityY,gravityZ,accelX,accelY,accelZ,rotRateX,rotRatY,rotRateZ,attPitch,attRoll,attYaw
-0.099711604,-0.175901636,-0.979344785,-0.000645444,-0.010774389,0.004064023,-0.008774146,0.030740699,0.001116822,0.176821604,-0.101464971,0.008924512
-0.099711604,-0.175901636,-0.979344785,-0.000645444,-0.010774389,0.004064023,-0.008774146,0.030740699,0.001116822,0.176821604,-0.101464971,0.008924512
-0.099711604,-0.175901636,-0.979344785,-0.000645444,-0.010774389,0.004064023,-0.008774146,0.030740699,0.001116822,0.176821604,-0.101464971,0.008924512
-0.099711604,-0.175901636,-0.979344785,-0.000645444,-0.010774389,0.004064023,-0.008774146,0.030740699,0.001116822,0.176821604,-0.101464971,0.008924512
-0.099711604,-0.175901636,-0.979344785,-0.000645444,-0.010774389,0.004064023,-0.008774146,0.030740699,0.001116822,0.176821604,-0.101464971,0.008924512
-0.099711604,-0.175901636,-0.979344785,-0.000645444,-0.010774389,0.004064023,-0.008774146,0.030740699,0.001116822,0.176821604,-0.101464971,0.008924512
-0.099360518,-0.175587684,-0.979436815,0.015437178,-0.008295983,0.02309221,-0.020208642,0.009792589,0.006009796,0.176502691,-0.101100706,0.008931028
-0.099360518,-0.175587684,-0.979436815,0.015437178,-0.008295983,0.02309221,-0.020208642,0.009792589,0.006009796,0.176502691,-0.101100706,0.008931028
-0.099360518,-0.175587684,-0.979436815,0.015437178,-0.008295983,0.02309221,-0.020208642,0.009792589,0.006009796,0.176502691,-0.101100706,0.008931028
-0.099360518,-0.175587684,-0.979436815,0.015437178,-0.008295983,0.02309221,-0.020208642,0.009792589,0.006009796,0.176502691,-0.101100706,0.008931028
-0.099360518,-0.175587684,-0.979436815,0.015437178,-0.008295983,0.02309221,-0.020208642,0.009792589,0.006009796,0.176502691,-0.101100706,0.008931028
-0.099360518,-0.175587684,-0.979436815,0.015437178,-0.008295983,0.02309221,-0.020208642,0.009792589,0.006009796,0.176502691,-0.101100706,0.008931028
-0.099360518,-0.175587684,-0.979436815,0.015437178,-0.008295983,0.02309221,-0.020208642,0.009792589,0.006009796,0.176502691,-0.101100706,0.008931028
-0.099360518,-0.175587684,-0.979436815,0.015437178,-0.008295983,0.02309221,-0.020208642,0.009792589,0.006009796,0.176502691,-0.101100706,0.008931028
-0.099360518,-0.175587684,-0.979436815,0.015437178,-0.008295983,0.02309221,-0.020208642,0.009792589,0.006009796,0.176502691,-0.101100706,0.008931028
-0.099360518,-0.175587684,-0.979436815,0.015437178,-0.008295983,0.02309221,-0.020208642,0.009792589,0.006009796,0.176502691,-0.101100706,0.008931028
-0.099360518,-0.175587684,-0.979436815,0.015437178,-0.008295983,0.02309221,-0.020208642,0.009792589,0.006009796,0.176502691,-0.101100706,0.008931028
-0.099360518,-0.175587684,-0.979436815,0.015437178,-0.008295983,0.02309221,-0.020208642,0.009792589,0.006009796,0.176502691,-0.101100706,0.008931028
-0.096136458,-0.182066485,-0.978575289,0.001531973,-0.001374677,0.014631808,-0.019700417,0.00461711,0.009314086,0.18308765,-0.097927017,0.008480389
-0.096136458,-0.182066485,-0.978575289,0.001531973,-0.001374677,0.014631808,-0.019700417,0.00461711,0.009314086,0.18308765,-0.097927017,0.008480389
-0.096136458,-0.182066485,-0.978575289,0.001531973,-0.001374677,0.014631808,-0.019700417,0.00461711,0.009314086,0.18308765,-0.097927017,0.008480389
-0.096136458,-0.182066485,-0.978575289,0.001531973,-0.001374677,0.014631808,-0.019700417,0.00461711,0.009314086,0.18308765,-0.097927017,0.008480389
-0.096136458,-0.182066485,-0.978575289,0.001531973,-0.001374677,0.014631808,-0.019700417,0.00461711,0.009314086,0.18308765,-0.097927017,0.008480389
-0.096136458,-0.182066485,-0.978575289,0.001531973,-0.001374677,0.014631808,-0.019700417,0.00461711,0.009314086,0.18308765,-0.097927017,0.008480389
-0.096136458,-0.182066485,-0.978575289,0.001531973,-0.001374677,0.014631808,-0.019700417,0.00461711,0.009314086,0.18308765,-0.097927017,0.008480389
-0.096136458,-0.182066485,-0.978575289,0.001531973,-0.001374677,0.014631808,-0.019700417,0.00461711,0.009314086,0.18308765,-0.097927017,0.008480389
-0.096136458,-0.182066485,-0.978575289,0.001531973,-0.001374677,0.014631808,-0.019700417,0.00461711,0.009314086,0.18308765,-0.097927017,0.008480389
-0.099101961,-0.182553813,-0.978188574,0.000789568,0.000653744,0.007546484,-0.025284188,0.000725045,0.010416687,0.183583289,-0.100967205,0.009177786
-0.099101961,-0.182553813,-0.978188574,0.000789568,0.000653744,0.007546484,-0.025284188,0.000725045,0.010416687,0.183583289,-0.100967205,0.009177786
-0.099101961,-0.182553813,-0.978188574,0.000789568,0.000653744,0.007546484,-0.025284188,0.000725045,0.010416687,0.183583289,-0.100967205,0.009177786
-0.099101961,-0.182553813,-0.978188574,0.000789568,0.000653744,0.007546484,-0.025284188,0.000725045,0.010416687,0.183583289,-0.100967205,0.009177786
-0.099101961,-0.182553813,-0.978188574,0.000789568,0.000653744,0.007546484,-0.025284188,0.000725045,0.010416687,0.183583289,-0.100967205,0.009177786
-0.099101961,-0.182553813,-0.978188574,0.000789568,0.000653744,0.007546484,-0.025284188,0.000725045,0.010416687,0.183583289,-0.100967205,0.009177786
-0.099101961,-0.182553813,-0.978188574,0.000789568,0.000653744,0.007546484,-0.025284188,0.000725045,0.010416687,0.183583289,-0.100967205,0.009177786
-0.099101961,-0.182553813,-0.978188574,0.000789568,0.000653744,0.007546484,-0.025284188,0.000725045,0.010416687,0.183583289,-0.100967205,0.009177786
-0.099101961,-0.182553813,-0.978188574,0.000789568,0.000653744,0.007546484,-0.025284188,0.000725045,0.010416687,0.183583289,-0.100967205,0.009177786
-0.099101961,-0.182553813,-0.978188574,0.000789568,0.000653744,0.007546484,-0.025284188,0.000725045,0.010416687,0.183583289,-0.100967205,0.009177786
-0.099101961,-0.182553813,-0.978188574,0.000789568,0.000653744,0.007546484,-0.025284188,0.000725045,0.010416687,0.183583289,-0.100967205,0.009177786
-0.100719534,-0.183570489,-0.977833033,0.008678503,0.011527598,0.01604104,-0.013638797,0.001938769,0.008173188,0.184617434,-0.10264082,0.009613347
-0.100719534,-0.183570489,-0.977833033,0.008678503,0.011527598,0.01604104,-0.013638797,0.001938769,0.008173188,0.184617434,-0.10264082,0.009613347
-0.100719534,-0.183570489,-0.977833033,0.008678503,0.011527598,0.01604104,-0.013638797,0.001938769,0.008173188,0.184617434,-0.10264082,0.009613347
-0.096062042,-0.184561267,-0.978115141,0.008217201,0.016256839,0.013988554,-0.001731444,0.009033175,-0.001799178,0.185625448,-0.097897438,0.008933224
-0.096062042,-0.184561267,-0.978115141,0.008217201,0.016256839,0.013988554,-0.001731444,0.009033175,-0.001799178,0.185625448,-0.097897438,0.008933224
-0.096062042,-0.184561267,-0.978115141,0.008217201,0.016256839,0.013988554,-0.001731444,0.009033175,-0.001799178,0.185625448,-0.097897438,0.008933224
-0.09564101,-0.18166621,-0.978698194,0.001097627,-0.00967887,0.007659376,-0.0247688,-0.012024559,0.002166747,0.182680593,-0.097413375,0.011924331
-0.09564101,-0.18166621,-0.978698194,0.001097627,-0.00967887,0.007659376,-0.0247688,-0.012024559,0.002166747,0.182680593,-0.097413375,0.011924331
-0.09564101,-0.18166621,-0.978698194,0.001097627,-0.00967887,0.007659376,-0.0247688,-0.012024559,0.002166747,0.182680593,-0.097413375,0.011924331
-0.09564101,-0.18166621,-0.978698194,0.001097627,-0.00967887,0.007659376,-0.0247688,-0.012024559,0.002166747,0.182680593,-0.097413375,0.011924331
-0.09564101,-0.18166621,-0.978698194,0.001097627,-0.00967887,0.007659376,-0.0247688,-0.012024559,0.002166747,0.182680593,-0.097413375,0.011924331
-0.09564101,-0.18166621,-0.978698194,0.001097627,-0.00967887,0.007659376,-0.0247688,-0.012024559,0.002166747,0.182680593,-0.097413375,0.011924331
-0.095593721,-0.18135944,-0.978759706,-0.001726739,-0.010046616,0.009597719,-0.047078218,-0.000472361,0.001638697,0.182368643,-0.097359432,0.011825554
-0.095593721,-0.18135944,-0.978759706,-0.001726739,-0.010046616,0.009597719,-0.047078218,-0.000472361,0.001638697,0.182368643,-0.097359432,0.011825554
-0.095593721,-0.18135944,-0.978759706,-0.001726739,-0.010046616,0.009597719,-0.047078218,-0.000472361,0.001638697,0.182368643,-0.097359432,0.011825554
-0.095530085,-0.181217596,-0.978792191,-0.001744568,-0.001963943,0.014024734,-0.035285715,-0.006837,-0.001783626,0.182224405,-0.097291823,0.011727808
-0.095530085,-0.181217596,-0.978792191,-0.001744568,-0.001963943,0.014024734,-0.035285715,-0.006837,-0.001783626,0.182224405,-0.097291823,0.011727808
-0.095530085,-0.181217596,-0.978792191,-0.001744568,-0.001963943,0.014024734,-0.035285715,-0.006837,-0.001783626,0.182224405,-0.097291823,0.011727808
-0.095530085,-0.181217596,-0.978792191,-0.001744568,-0.001963943,0.014024734,-0.035285715,-0.006837,-0.001783626,0.182224405,-0.097291823,0.011727808
-0.095530085,-0.181217596,-0.978792191,-0.001744568,-0.001963943,0.014024734,-0.035285715,-0.006837,-0.001783626,0.182224405,-0.097291823,0.011727808
-0.09559615,-0.181276694,-0.978774846,0.002624467,0.005190492,0.014724493,-0.036493085,-0.00937693,-0.004291631,0.182284498,-0.097360395,0.011592528
-0.09559615,-0.181276694,-0.978774846,0.002624467,0.005190492,0.014724493,-0.036493085,-0.00937693,-0.004291631,0.182284498,-0.097360395,0.011592528
-0.09559615,-0.181276694,-0.978774846,0.002624467,0.005190492,0.014724493,-0.036493085,-0.00937693,-0.004291631,0.182284498,-0.097360395,0.011592528
-0.09559615,-0.181276694,-0.978774846,0.002624467,0.005190492,0.014724493,-0.036493085,-0.00937693,-0.004291631,0.182284498,-0.097360395,0.011592528
-0.09559615,-0.181276694,-0.978774846,0.002624467,0.005190492,0.014724493,-0.036493085,-0.00937693,-0.004291631,0.182284498,-0.097360395,0.011592528
-0.09559615,-0.181276694,-0.978774846,0.002624467,0.005190492,0.014724493,-0.036493085,-0.00937693,-0.004291631,0.182284498,-0.097360395,0.011592528
-0.095673904,-0.181079105,-0.978803813,7.77E-05,-0.001934528,0.01086247,-0.034804508,-0.008737215,-0.011759134,0.182083587,-0.097436222,0.011319417
-0.095673904,-0.181079105,-0.978803813,7.77E-05,-0.001934528,0.01086247,-0.034804508,-0.008737215,-0.011759134,0.182083587,-0.097436222,0.011319417
-0.095673904,-0.181079105,-0.978803813,7.77E-05,-0.001934528,0.01086247,-0.034804508,-0.008737215,-0.011759134,0.182083587,-0.097436222,0.011319417
-0.095673904,-0.181079105,-0.978803813,7.77E-05,-0.001934528,0.01086247,-0.034804508,-0.008737215,-0.011759134,0.182083587,-0.097436222,0.011319417
-0.095673904,-0.181079105,-0.978803813,7.77E-05,-0.001934528,0.01086247,-0.034804508,-0.008737215,-0.011759134,0.182083587,-0.097436222,0.011319417
-0.095673904,-0.181079105,-0.978803813,7.77E-05,-0.001934528,0.01086247,-0.034804508,-0.008737215,-0.011759134,0.182083587,-0.097436222,0.011319417
-0.095913738,-0.180961281,-0.978802085,0.002469055,0.007713273,0.012356162,-0.016172823,-0.011177566,-0.009346791,0.18196378,-0.097679091,0.011050325
-0.095913738,-0.180961281,-0.978802085,0.002469055,0.007713273,0.012356162,-0.016172823,-0.011177566,-0.009346791,0.18196378,-0.097679091,0.011050325
-0.095913738,-0.180961281,-0.978802085,0.002469055,0.007713273,0.012356162,-0.016172823,-0.011177566,-0.009346791,0.18196378,-0.097679091,0.011050325
-0.095913738,-0.180961281,-0.978802085,0.002469055,0.007713273,0.012356162,-0.016172823,-0.011177566,-0.009346791,0.18196378,-0.097679091,0.011050325
-0.095913738,-0.180961281,-0.978802085,0.002469055,0.007713273,0.012356162,-0.016172823,-0.011177566,-0.009346791,0.18196378,-0.097679091,0.011050325
-0.095913738,-0.180961281,-0.978802085,0.002469055,0.007713273,0.012356162,-0.016172823,-0.011177566,-0.009346791,0.18196378,-0.097679091,0.011050325
-0.095913738,-0.180961281,-0.978802085,0.002469055,0.007713273,0.012356162,-0.016172823,-0.011177566,-0.009346791,0.18196378,-0.097679091,0.011050325
-0.095913738,-0.180961281,-0.978802085,0.002469055,0.007713273,0.012356162,-0.016172823,-0.011177566,-0.009346791,0.18196378,-0.097679091,0.011050325
-0.095913738,-0.180961281,-0.978802085,0.002469055,0.007713273,0.012356162,-0.016172823,-0.011177566,-0.009346791,0.18196378,-0.097679091,0.011050325
-0.096164562,-0.180805802,-0.978806257,0.000537872,-0.005900458,0.014450729,0.001336118,0.00111141,-0.011215051,0.181805698,-0.097932495,0.01063759
-0.096164562,-0.180805802,-0.978806257,0.000537872,-0.005900458,0.014450729,0.001336118,0.00111141,-0.011215051,0.181805698,-0.097932495,0.01063759
-0.096164562,-0.180805802,-0.978806257,0.000537872,-0.005900458,0.014450729,0.001336118,0.00111141,-0.011215051,0.181805698,-0.097932495,0.01063759
-0.096176334,-0.18084766,-0.978797317,0.002991043,-0.002257541,0.013312697,0.002639136,-0.00169819,-0.003003993,0.181848247,-0.097945288,0.010479428
-0.096176334,-0.18084766,-0.978797317,0.002991043,-0.002257541,0.013312697,0.002639136,-0.00169819,-0.003003993,0.181848247,-0.097945288,0.010479428
-0.096176334,-0.18084766,-0.978797317,0.002991043,-0.002257541,0.013312697,0.002639136,-0.00169819,-0.003003993,0.181848247,-0.097945288,0.010479428
-0.096176334,-0.18084766,-0.978797317,0.002991043,-0.002257541,0.013312697,0.002639136,-0.00169819,-0.003003993,0.181848247,-0.097945288,0.010479428
-0.09619458,-0.180724889,-0.978818238,0.00108669,-0.000488222,0.014020205,0.002823493,-0.00059541,-0.000448956,0.181723422,-0.097961675,0.010489252
-0.09619458,-0.180724889,-0.978818238,0.00108669,-0.000488222,0.014020205,0.002823493,-0.00059541,-0.000448956,0.181723422,-0.097961675,0.010489252
-0.09619458,-0.180724889,-0.978818238,0.00108669,-0.000488222,0.014020205,0.002823493,-0.00059541,-0.000448956,0.181723422,-0.097961675,0.010489252
-0.09619458,-0.180724889,-0.978818238,0.00108669,-0.000488222,0.014020205,0.002823493,-0.00059541,-0.000448956,0.181723422,-0.097961675,0.010489252
-0.096338481,-0.180602208,-0.978826702,0.003076904,0.007018492,0.006094158,-0.0313357,0.004840876,0.017903049,0.181598696,-0.098106439,0.010657191
-0.096338481,-0.180602208,-0.978826702,0.003076904,0.007018492,0.006094158,-0.0313357,0.004840876,0.017903049,0.181598696,-0.098106439,0.010657191
-0.096338481,-0.180602208,-0.978826702,0.003076904,0.007018492,0.006094158,-0.0313357,0.004840876,0.017903049,0.181598696,-0.098106439,0.010657191
-0.096360259,-0.180230036,-0.978893161,0.000275806,0.001305744,0.008434176,-0.019661615,0.003053738,0.009727888,0.181220313,-0.098121856,0.010859389
-0.096360259,-0.180230036,-0.978893161,0.000275806,0.001305744,0.008434176,-0.019661615,0.003053738,0.009727888,0.181220313,-0.098121856,0.010859389
-0.096360259,-0.180230036,-0.978893161,0.000275806,0.001305744,0.008434176,-0.019661615,0.003053738,0.009727888,0.181220313,-0.098121856,0.010859389
-0.096360259,-0.180230036,-0.978893161,0.000275806,0.001305744,0.008434176,-0.019661615,0.003053738,0.009727888,0.181220313,-0.098121856,0.010859389
-0.096360259,-0.180230036,-0.978893161,0.000275806,0.001305744,0.008434176,-0.019661615,0.003053738,0.009727888,0.181220313,-0.098121856,0.010859389
-0.096360259,-0.180230036,-0.978893161,0.000275806,0.001305744,0.008434176,-0.019661615,0.003053738,0.009727888,0.181220313,-0.098121856,0.010859389
-0.096360259,-0.180230036,-0.978893161,0.000275806,0.001305744,0.008434176,-0.019661615,0.003053738,0.009727888,0.181220313,-0.098121856,0.010859389
-0.096360259,-0.180230036,-0.978893161,0.000275806,0.001305744,0.008434176,-0.019661615,0.003053738,0.009727888,0.181220313,-0.098121856,0.010859389
-0.096360259,-0.180230036,-0.978893161,0.000275806,0.001305744,0.008434176,-0.019661615,0.003053738,0.009727888,0.181220313,-0.098121856,0.010859389
-0.096328355,-0.180204928,-0.978900909,0.005828619,0.007429928,0.010196686,-0.002535146,-0.002776333,0.015491288,0.181194782,-0.098088804,0.011107944
-0.096328355,-0.180204928,-0.978900909,0.005828619,0.007429928,0.010196686,-0.002535146,-0.002776333,0.015491288,0.181194782,-0.098088804,0.011107944
-0.096328355,-0.180204928,-0.978900909,0.005828619,0.007429928,0.010196686,-0.002535146,-0.002776333,0.015491288,0.181194782,-0.098088804,0.011107944
-0.096351936,-0.18012695,-0.97891295,0.002174832,0.003369406,0.009033799,-0.008464115,0.005998031,0.025349621,0.181115513,-0.098111463,0.011536404
-0.096351936,-0.18012695,-0.97891295,0.002174832,0.003369406,0.009033799,-0.008464115,0.005998031,0.025349621,0.181115513,-0.098111463,0.011536404
-0.096351936,-0.18012695,-0.97891295,0.002174832,0.003369406,0.009033799,-0.008464115,0.005998031,0.025349621,0.181115513,-0.098111463,0.011536404
-0.096351936,-0.18012695,-0.97891295,0.002174832,0.003369406,0.009033799,-0.008464115,0.005998031,0.025349621,0.181115513,-0.098111463,0.011536404
-0.096351936,-0.18012695,-0.97891295,0.002174832,0.003369406,0.009033799,-0.008464115,0.005998031,0.025349621,0.181115513,-0.098111463,0.011536404
-0.096351936,-0.18012695,-0.97891295,0.002174832,0.003369406,0.009033799,-0.008464115,0.005998031,0.025349621,0.181115513,-0.098111463,0.011536404
-0.096323416,-0.179766014,-0.978982091,-0.004598051,0.00256601,0.007866979,-0.015506232,0.006663217,0.02705436,0.180748592,-0.098075724,0.012043397
-0.096323416,-0.179766014,-0.978982091,-0.004598051,0.00256601,0.007866979,-0.015506232,0.006663217,0.02705436,0.180748592,-0.098075724,0.012043397
-0.096323416,-0.179766014,-0.978982091,-0.004598051,0.00256601,0.007866979,-0.015506232,0.006663217,0.02705436,0.180748592,-0.098075724,0.012043397
-0.096323416,-0.179766014,-0.978982091,-0.004598051,0.00256601,0.007866979,-0.015506232,0.006663217,0.02705436,0.180748592,-0.098075724,0.012043397
-0.096323416,-0.179766014,-0.978982091,-0.004598051,0.00256601,0.007866979,-0.015506232,0.006663217,0.02705436,0.180748592,-0.098075724,0.012043397
-0.096345641,-0.179495156,-0.979029655,-0.00140202,0.002874956,0.012278497,-0.013222785,0.00244966,0.028343543,0.18047325,-0.098093476,0.012583702
-0.096345641,-0.179495156,-0.979029655,-0.00140202,0.002874956,0.012278497,-0.013222785,0.00244966,0.028343543,0.18047325,-0.098093476,0.012583702
-0.096345641,-0.179495156,-0.979029655,-0.00140202,0.002874956,0.012278497,-0.013222785,0.00244966,0.028343543,0.18047325,-0.098093476,0.012583702
-0.096345641,-0.179495156,-0.979029655,-0.00140202,0.002874956,0.012278497,-0.013222785,0.00244966,0.028343543,0.18047325,-0.098093476,0.012583702
-0.096345641,-0.179495156,-0.979029655,-0.00140202,0.002874956,0.012278497,-0.013222785,0.00244966,0.028343543,0.18047325,-0.098093476,0.012583702
-0.096409127,-0.179147989,-0.979086936,0.001514882,0.007135972,0.018652976,-0.008305112,-0.006319174,0.021597544,0.180120362,-0.098151988,0.013084538
-0.096409127,-0.179147989,-0.979086936,0.001514882,0.007135972,0.018652976,-0.008305112,-0.006319174,0.021597544,0.180120362,-0.098151988,0.013084538
-0.096409127,-0.179147989,-0.979086936,0.001514882,0.007135972,0.018652976,-0.008305112,-0.006319174,0.021597544,0.180120362,-0.098151988,0.013084538
-0.096409127,-0.179147989,-0.979086936,0.001514882,0.007135972,0.018652976,-0.008305112,-0.006319174,0.021597544,0.180120362,-0.098151988,0.013084538
-0.096409127,-0.179147989,-0.979086936,0.001514882,0.007135972,0.018652976,-0.008305112,-0.006319174,0.021597544,0.180120362,-0.098151988,0.013084538
-0.096515998,-0.178864196,-0.979128301,0.0067029,0.003479943,0.004808843,-0.016176164,-0.003218284,0.013985378,0.179831912,-0.098255967,0.013440235
-0.096515998,-0.178864196,-0.979128301,0.0067029,0.003479943,0.004808843,-0.016176164,-0.003218284,0.013985378,0.179831912,-0.098255967,0.013440235
-0.096515998,-0.178864196,-0.979128301,0.0067029,0.003479943,0.004808843,-0.016176164,-0.003218284,0.013985378,0.179831912,-0.098255967,0.013440235
-0.096515998,-0.178864196,-0.979128301,0.0067029,0.003479943,0.004808843,-0.016176164,-0.003218284,0.013985378,0.179831912,-0.098255967,0.013440235
-0.096515998,-0.178864196,-0.979128301,0.0067029,0.003479943,0.004808843,-0.016176164,-0.003218284,0.013985378,0.179831912,-0.098255967,0.013440235
-0.096824974,-0.177176327,-0.979404628,-0.009513386,0.003317937,0.01466769,-0.001973619,-8.28E-05,0.027553275,0.178116638,-0.098540855,0.014239225
-0.096824974,-0.177176327,-0.979404628,-0.009513386,0.003317937,0.01466769,-0.001973619,-8.28E-05,0.027553275,0.178116638,-0.098540855,0.014239225
-0.096824974,-0.177176327,-0.979404628,-0.009513386,0.003317937,0.01466769,-0.001973619,-8.28E-05,0.027553275,0.178116638,-0.098540855,0.014239225
-0.096781343,-0.177277118,-0.97939074,-0.009282358,0.00428848,0.01619494,0.018414743,-0.001344279,0.034225028,0.178219052,-0.098498131,0.014850951
-0.096781343,-0.177277118,-0.97939074,-0.009282358,0.00428848,0.01619494,0.018414743,-0.001344279,0.034225028,0.178219052,-0.098498131,0.014850951
-0.096781343,-0.177277118,-0.97939074,-0.009282358,0.00428848,0.01619494,0.018414743,-0.001344279,0.034225028,0.178219052,-0.098498131,0.014850951
-0.096781343,-0.177277118,-0.97939074,-0.009282358,0.00428848,0.01619494,0.018414743,-0.001344279,0.034225028,0.178219052,-0.098498131,0.014850951
-0.096781343,-0.177277118,-0.97939074,-0.009282358,0.00428848,0.01619494,0.018414743,-0.001344279,0.034225028,0.178219052,-0.098498131,0.014850951
-0.096781343,-0.177277118,-0.97939074,-0.009282358,0.00428848,0.01619494,0.018414743,-0.001344279,0.034225028,0.178219052,-0.098498131,0.014850951
-0.09675134,-0.177413702,-0.979368985,-0.001454085,0.000198379,0.011091948,-0.004478628,0.003679327,0.027731281,0.178357836,-0.098469964,0.015501504
-0.09675134,-0.177413702,-0.979368985,-0.001454085,0.000198379,0.011091948,-0.004478628,0.003679327,0.027731281,0.178357836,-0.098469964,0.015501504
-0.09675134,-0.177413702,-0.979368985,-0.001454085,0.000198379,0.011091948,-0.004478628,0.003679327,0.027731281,0.178357836,-0.098469964,0.015501504
-0.097097807,-0.177709118,-0.979281127,-0.001473807,0.008321613,0.016756654,0.025718277,0.002773912,0.016405605,0.178658024,-0.098829108,0.017409449
-0.097097807,-0.177709118,-0.979281127,-0.001473807,0.008321613,0.016756654,0.025718277,0.002773912,0.016405605,0.178658024,-0.098829108,0.017409449
,,,,,,,,,,,
-0.096997112,-0.178447634,-0.979156792,0.017529495,0.009487361,0.004791498,0.034278315,-0.000512719,-0.017832633,0.179408531,-0.098739731,0.017266764
-0.096997112,-0.178447634,-0.979156792,0.017529495,0.009487361,0.004791498,0.034278315,-0.000512719,-0.017832633,0.179408531,-0.098739731,0.017266764
-0.096997112,-0.178447634,-0.979156792,0.017529495,0.009487361,0.004791498,0.034278315,-0.000512719,-0.017832633,0.179408531,-0.098739731,0.017266764
-0.097000569,-0.17915751,-0.979026794,0.000977196,-0.00905931,0.008674622,-0.007253349,-0.004985801,-0.017566051,0.180130032,-0.098756259,0.016111609
-0.097000569,-0.17915751,-0.979026794,0.000977196,-0.00905931,0.008674622,-0.007253349,-0.004985801,-0.017566051,0.180130032,-0.098756259,0.016111609
-0.097000569,-0.17915751,-0.979026794,0.000977196,-0.00905931,0.008674622,-0.007253349,-0.004985801,-0.017566051,0.180130032,-0.098756259,0.016111609
-0.096613593,-0.178894222,-0.979113221,-0.00400269,0.004364505,0.01303345,-0.000810377,-0.004045038,0.001857927,0.179862426,-0.098356196,0.015861084
-0.096613593,-0.178894222,-0.979113221,-0.00400269,0.004364505,0.01303345,-0.000810377,-0.004045038,0.001857927,0.179862426,-0.098356196,0.015861084
-0.096613593,-0.178894222,-0.979113221,-0.00400269,0.004364505,0.01303345,-0.000810377,-0.004045038,0.001857927,0.179862426,-0.098356196,0.015861084
-0.096464112,-0.179412693,-0.979033053,-0.008287288,-0.001678258,0.013868868,-0.005463465,-6.99E-05,0.030869283,0.180389432,-0.098212982,0.017269397
-0.096464112,-0.179412693,-0.979033053,-0.008287288,-0.001678258,0.013868868,-0.005463465,-6.99E-05,0.030869283,0.180389432,-0.098212982,0.017269397
-0.096464112,-0.179412693,-0.979033053,-0.008287288,-0.001678258,0.013868868,-0.005463465,-6.99E-05,0.030869283,0.180389432,-0.098212982,0.017269397
-0.096746758,-0.179156825,-0.979052067,-0.00690601,-0.003292173,0.012377203,-0.017834621,-0.00369412,0.037725169,0.18012935,-0.098497,0.017960004
-0.096746758,-0.179156825,-0.979052067,-0.00690601,-0.003292173,0.012377203,-0.017834621,-0.00369412,0.037725169,0.18012935,-0.098497,0.017960004
-0.096746758,-0.179156825,-0.979052067,-0.00690601,-0.003292173,0.012377203,-0.017834621,-0.00369412,0.037725169,0.18012935,-0.098497,0.017960004
-0.097072177,-0.178399697,-0.979158103,-0.008381099,-0.000783876,0.013215661,-0.019834267,-0.002148577,0.033778839,0.179359811,-0.098815525,0.018702335
-0.097072177,-0.178399697,-0.979158103,-0.008381099,-0.000783876,0.013215661,-0.019834267,-0.002148577,0.033778839,0.179359811,-0.098815525,0.018702335
-0.097072177,-0.178399697,-0.979158103,-0.008381099,-0.000783876,0.013215661,-0.019834267,-0.002148577,0.033778839,0.179359811,-0.098815525,0.018702335
-0.097424135,-0.177710563,-0.979248405,-0.003771938,0.008414701,0.011658072,-0.029592356,0.004433159,0.036750928,0.178659492,-0.099162373,0.019372707
-0.097424135,-0.177710563,-0.979248405,-0.003771938,0.008414701,0.011658072,-0.029592356,0.004433159,0.036750928,0.178659492,-0.099162373,0.019372707
-0.097424135,-0.177710563,-0.979248405,-0.003771938,0.008414701,0.011658072,-0.029592356,0.004433159,0.036750928,0.178659492,-0.099162373,0.019372707
-0.097424135,-0.177710563,-0.979248405,-0.003771938,0.008414701,0.011658072,-0.029592356,0.004433159,0.036750928,0.178659492,-0.099162373,0.019372707
-0.097424135,-0.177710563,-0.979248405,-0.003771938,0.008414701,0.011658072,-0.029592356,0.004433159,0.036750928,0.178659492,-0.099162373,0.019372707
-0.097424135,-0.177710563,-0.979248405,-0.003771938,0.008414701,0.011658072,-0.029592356,0.004433159,0.036750928,0.178659492,-0.099162373,0.019372707
-0.097424135,-0.177710563,-0.979248405,-0.003771938,0.008414701,0.011658072,-0.029592356,0.004433159,0.036750928,0.178659492,-0.099162373,0.019372707
-0.097600341,-0.177167386,-0.979329288,-0.002085112,0.001172915,0.016865909,-0.022550693,0.007458775,0.032518901,0.178107559,-0.099332394,0.020049088
-0.097600341,-0.177167386,-0.979329288,-0.002085112,0.001172915,0.016865909,-0.022550693,0.007458775,0.032518901,0.178107559,-0.099332394,0.020049088
-0.097600341,-0.177167386,-0.979329288,-0.002085112,0.001172915,0.016865909,-0.022550693,0.007458775,0.032518901,0.178107559,-0.099332394,0.020049088
-0.097600341,-0.177167386,-0.979329288,-0.002085112,0.001172915,0.016865909,-0.022550693,0.007458775,0.032518901,0.178107559,-0.099332394,0.020049088
-0.097600341,-0.177167386,-0.979329288,-0.002085112,0.001172915,0.016865909,-0.022550693,0.007458775,0.032518901,0.178107559,-0.099332394,0.020049088
-0.09772934,-0.177038714,-0.979339719,0.007824793,0.007102013,0.013107359,-0.006827109,0.008419027,0.038618658,0.177976823,-0.099461769,0.020760366
-0.09772934,-0.177038714,-0.979339719,0.007824793,0.007102013,0.013107359,-0.006827109,0.008419027,0.038618658,0.177976823,-0.099461769,0.020760366
-0.09772934,-0.177038714,-0.979339719,0.007824793,0.007102013,0.013107359,-0.006827109,0.008419027,0.038618658,0.177976823,-0.099461769,0.020760366
-0.097842053,-0.177114159,-0.979314804,0.003085233,-0.002450794,0.009832323,0.005293508,0.01340869,0.029348623,0.178053469,-0.099578239,0.021425083
-0.097842053,-0.177114159,-0.979314804,0.003085233,-0.002450794,0.009832323,0.005293508,0.01340869,0.029348623,0.178053469,-0.099578239,0.021425083
-0.097842053,-0.177114159,-0.979314804,0.003085233,-0.002450794,0.009832323,0.005293508,0.01340869,0.029348623,0.178053469,-0.099578239,0.021425083
-0.097974546,-0.177070528,-0.97930944,0.000501662,0.00022164,0.015991569,0.002592078,0.001863498,0.031631537,0.178009138,-0.099712732,0.022092105
-0.097974546,-0.177070528,-0.97930944,0.000501662,0.00022164,0.015991569,0.002592078,0.001863498,0.031631537,0.178009138,-0.099712732,0.022092105
-0.097974546,-0.177070528,-0.97930944,0.000501662,0.00022164,0.015991569,0.002592078,0.001863498,0.031631537,0.178009138,-0.099712732,0.022092105
-0.097974546,-0.177070528,-0.97930944,0.000501662,0.00022164,0.015991569,0.002592078,0.001863498,0.031631537,0.178009138,-0.099712732,0.022092105
-0.097974546,-0.177070528,-0.97930944,0.000501662,0.00022164,0.015991569,0.002592078,0.001863498,0.031631537,0.178009138,-0.099712732,0.022092105
-0.097974546,-0.177070528,-0.97930944,0.000501662,0.00022164,0.015991569,0.002592078,0.001863498,0.031631537,0.178009138,-0.099712732,0.022092105
-0.097974546,-0.177070528,-0.97930944,0.000501662,0.00022164,0.015991569,0.002592078,0.001863498,0.031631537,0.178009138,-0.099712732,0.022092105
-0.097974546,-0.177070528,-0.97930944,0.000501662,0.00022164,0.015991569,0.002592078,0.001863498,0.031631537,0.178009138,-0.099712732,0.022092105
-0.098088004,-0.176991746,-0.97931236,0.002842896,-0.004434764,0.013430953,-0.005715107,0.002613674,0.024484199,0.177929102,-0.099827143,0.022597885
-0.098088004,-0.176991746,-0.97931236,0.002842896,-0.004434764,0.013430953,-0.005715107,0.002613674,0.024484199,0.177929102,-0.099827143,0.022597885
-0.098088004,-0.176991746,-0.97931236,0.002842896,-0.004434764,0.013430953,-0.005715107,0.002613674,0.024484199,0.177929102,-0.099827143,0.022597885
-0.098088004,-0.176991746,-0.97931236,0.002842896,-0.004434764,0.013430953,-0.005715107,0.002613674,0.024484199,0.177929102,-0.099827143,0.022597885
-0.098088004,-0.176991746,-0.97931236,0.002842896,-0.004434764,0.013430953,-0.005715107,0.002613674,0.024484199,0.177929102,-0.099827143,0.022597885
-0.098088004,-0.176991746,-0.97931236,0.002842896,-0.004434764,0.013430953,-0.005715107,0.002613674,0.024484199,0.177929102,-0.099827143,0.022597885
-0.09795063,-0.176877126,-0.979346812,0.002980188,0.002851114,0.015708447,0.006128916,0.003919532,0.00460615,0.17781264,-0.099684781,0.022840593
-0.09795063,-0.176877126,-0.979346812,0.002980188,0.002851114,0.015708447,0.006128916,0.003919532,0.00460615,0.17781264,-0.099684781,0.022840593
-0.09795063,-0.176877126,-0.979346812,0.002980188,0.002851114,0.015708447,0.006128916,0.003919532,0.00460615,0.17781264,-0.099684781,0.022840593
-0.09795063,-0.176877126,-0.979346812,0.002980188,0.002851114,0.015708447,0.006128916,0.003919532,0.00460615,0.17781264,-0.099684781,0.022840593
-0.09795063,-0.176877126,-0.979346812,0.002980188,0.002851114,0.015708447,0.006128916,0.003919532,0.00460615,0.17781264,-0.099684781,0.022840593
-0.09795063,-0.176877126,-0.979346812,0.002980188,0.002851114,0.015708447,0.006128916,0.003919532,0.00460615,0.17781264,-0.099684781,0.022840593
-0.097819358,-0.177430764,-0.979259789,0.00245221,0.007982433,0.009945154,0.010638447,0.001577281,0.006998201,0.178375173,-0.099560849,0.023239429
-0.097819358,-0.177430764,-0.979259789,0.00245221,0.007982433,0.009945154,0.010638447,0.001577281,0.006998201,0.178375173,-0.099560849,0.023239429
-0.097819358,-0.177430764,-0.979259789,0.00245221,0.007982433,0.009945154,0.010638447,0.001577281,0.006998201,0.178375173,-0.099560849,0.023239429
-0.097819358,-0.177430764,-0.979259789,0.00245221,0.007982433,0.009945154,0.010638447,0.001577281,0.006998201,0.178375173,-0.099560849,0.023239429
-0.097785205,-0.1776326,-0.979226589,0.000281833,0.002919987,0.010110319,0.002938196,0.004883293,0.015994146,0.178580264,-0.099529674,0.023495936
-0.097785205,-0.1776326,-0.979226589,0.000281833,0.002919987,0.010110319,0.002938196,0.004883293,0.015994146,0.178580264,-0.099529674,0.023495936
-0.097785205,-0.1776326,-0.979226589,0.000281833,0.002919987,0.010110319,0.002938196,0.004883293,0.015994146,0.178580264,-0.099529674,0.023495936
-0.097785205,-0.1776326,-0.979226589,0.000281833,0.002919987,0.010110319,0.002938196,0.004883293,0.015994146,0.178580264,-0.099529674,0.023495936
-0.097785205,-0.1776326,-0.979226589,0.000281833,0.002919987,0.010110319,0.002938196,0.004883293,0.015994146,0.178580264,-0.099529674,0.023495936
-0.097785205,-0.1776326,-0.979226589,0.000281833,0.002919987,0.010110319,0.002938196,0.004883293,0.015994146,0.178580264,-0.099529674,0.023495936
-0.097785205,-0.1776326,-0.979226589,0.000281833,0.002919987,0.010110319,0.002938196,0.004883293,0.015994146,0.178580264,-0.099529674,0.023495936
-0.097747013,-0.177832216,-0.979194164,-0.000595592,-0.001473293,0.013801038,0.019526532,-0.001086533,0.009227747,0.178783114,-0.099494326,0.023726993
-0.097747013,-0.177832216,-0.979194164,-0.000595592,-0.001473293,0.013801038,0.019526532,-0.001086533,0.009227747,0.178783114,-0.099494326,0.023726993
-0.097747013,-0.177832216,-0.979194164,-0.000595592,-0.001473293,0.013801038,0.019526532,-0.001086533,0.009227747,0.178783114,-0.099494326,0.023726993
-0.097725578,-0.177914992,-0.97918129,0.001641288,0.002088532,0.008081377,0.010073323,-0.003686941,0.01324864,0.178867227,-0.099473948,0.024015711
-0.097725578,-0.177914992,-0.97918129,0.001641288,0.002088532,0.008081377,0.010073323,-0.003686941,0.01324864,0.178867227,-0.099473948,0.024015711
-0.097725578,-0.177914992,-0.97918129,0.001641288,0.002088532,0.008081377,0.010073323,-0.003686941,0.01324864,0.178867227,-0.099473948,0.024015711
-0.097821362,-0.177815333,-0.979189813,0.006070569,-0.001566425,0.010973811,-0.004552398,-0.00514283,0.015011759,0.178765958,-0.099569943,0.024279599
-0.097821362,-0.177815333,-0.979189813,0.006070569,-0.001566425,0.010973811,-0.004552398,-0.00514283,0.015011759,0.178765958,-0.099569943,0.024279599
-0.097821362,-0.177815333,-0.979189813,0.006070569,-0.001566425,0.010973811,-0.004552398,-0.00514283,0.015011759,0.178765958,-0.099569943,0.024279599
-0.097821362,-0.177815333,-0.979189813,0.006070569,-0.001566425,0.010973811,-0.004552398,-0.00514283,0.015011759,0.178765958,-0.099569943,0.024279599
-0.097821362,-0.177815333,-0.979189813,0.006070569,-0.001566425,0.010973811,-0.004552398,-0.00514283,0.015011759,0.178765958,-0.099569943,0.024279599
-0.097940147,-0.177278206,-0.979275346,0.010217682,0.003267542,0.007565081,-0.043592941,0.000388567,0.012159513,0.178220162,-0.099681409,0.024552032
-0.098004371,-0.176230475,-0.979457974,0.007886268,-0.012169242,0.008785307,-0.06200923,-0.000425077,-0.011343415,0.177155666,-0.099727862,0.024494791
-0.098004371,-0.176230475,-0.979457974,0.007886268,-0.012169242,0.008785307,-0.06200923,-0.000425077,-0.011343415,0.177155666,-0.099727862,0.024494791
-0.098004371,-0.176230475,-0.979457974,0.007886268,-0.012169242,0.008785307,-0.06200923,-0.000425077,-0.011343415,0.177155666,-0.099727862,0.024494791
-0.098004371,-0.176230475,-0.979457974,0.007886268,-0.012169242,0.008785307,-0.06200923,-0.000425077,-0.011343415,0.177155666,-0.099727862,0.024494791
-0.098004371,-0.176230475,-0.979457974,0.007886268,-0.012169242,0.008785307,-0.06200923,-0.000425077,-0.011343415,0.177155666,-0.099727862,0.024494791
-0.098004371,-0.176230475,-0.979457974,0.007886268,-0.012169242,0.008785307,-0.06200923,-0.000425077,-0.011343415,0.177155666,-0.099727862,0.024494791
-0.097975366,-0.17542845,-0.97960484,0.005583704,0.009520188,0.015966475,-0.025612822,-0.007688704,-0.007168698,0.176340952,-0.099683691,0.024209649
-0.097975366,-0.17542845,-0.97960484,0.005583704,0.009520188,0.015966475,-0.025612822,-0.007688704,-0.007168698,0.176340952,-0.099683691,0.024209649
-0.097975366,-0.17542845,-0.97960484,0.005583704,0.009520188,0.015966475,-0.025612822,-0.007688704,-0.007168698,0.176340952,-0.099683691,0.024209649
-0.097975366,-0.17542845,-0.97960484,0.005583704,0.009520188,0.015966475,-0.025612822,-0.007688704,-0.007168698,0.176340952,-0.099683691,0.024209649
-0.097975366,-0.17542845,-0.97960484,0.005583704,0.009520188,0.015966475,-0.025612822,-0.007688704,-0.007168698,0.176340952,-0.099683691,0.024209649
-0.098040409,-0.175186411,-0.979641676,-0.005062923,0.017975658,0.010540664,-0.016985046,-0.00460584,1.94E-05,0.176095106,-0.099745709,0.024089677
-0.098040409,-0.175186411,-0.979641676,-0.005062923,0.017975658,0.010540664,-0.016985046,-0.00460584,1.94E-05,0.176095106,-0.099745709,0.024089677
-0.098040409,-0.175186411,-0.979641676,-0.005062923,0.017975658,0.010540664,-0.016985046,-0.00460584,1.94E-05,0.176095106,-0.099745709,0.024089677
-0.098040409,-0.175186411,-0.979641676,-0.005062923,0.017975658,0.010540664,-0.016985046,-0.00460584,1.94E-05,0.176095106,-0.099745709,0.024089677
-0.098040409,-0.175186411,-0.979641676,-0.005062923,0.017975658,0.010540664,-0.016985046,-0.00460584,1.94E-05,0.176095106,-0.099745709,0.024089677
-0.098040409,-0.175186411,-0.979641676,-0.005062923,0.017975658,0.010540664,-0.016985046,-0.00460584,1.94E-05,0.176095106,-0.099745709,0.024089677
-0.098040409,-0.175186411,-0.979641676,-0.005062923,0.017975658,0.010540664,-0.016985046,-0.00460584,1.94E-05,0.176095106,-0.099745709,0.024089677
-0.098040409,-0.175186411,-0.979641676,-0.005062923,0.017975658,0.010540664,-0.016985046,-0.00460584,1.94E-05,0.176095106,-0.099745709,0.024089677
-0.097857423,-0.174899548,-0.979711235,-0.01002191,0.013523147,0.012380242,-0.013594189,0.002262609,0.001810895,0.175803736,-0.09955375,0.024043699
-0.097857423,-0.174899548,-0.979711235,-0.01002191,0.013523147,0.012380242,-0.013594189,0.002262609,0.001810895,0.175803736,-0.09955375,0.024043699
-0.097857423,-0.174899548,-0.979711235,-0.01002191,0.013523147,0.012380242,-0.013594189,0.002262609,0.001810895,0.175803736,-0.09955375,0.024043699
-0.097747378,-0.175105482,-0.979685426,0.00416556,0.003643081,0.018427432,-0.004213151,-0.0085452,-0.010487368,0.176012912,-0.09944513,0.023925893
-0.097747378,-0.175105482,-0.979685426,0.00416556,0.003643081,0.018427432,-0.004213151,-0.0085452,-0.010487368,0.176012912,-0.09944513,0.023925893
-0.097747378,-0.175105482,-0.979685426,0.00416556,0.003643081,0.018427432,-0.004213151,-0.0085452,-0.010487368,0.176012912,-0.09944513,0.023925893
-0.097747378,-0.175105482,-0.979685426,0.00416556,0.003643081,0.018427432,-0.004213151,-0.0085452,-0.010487368,0.176012912,-0.09944513,0.023925893
-0.097747378,-0.175105482,-0.979685426,0.00416556,0.003643081,0.018427432,-0.004213151,-0.0085452,-0.010487368,0.176012912,-0.09944513,0.023925893
-0.097747378,-0.175105482,-0.979685426,0.00416556,0.003643081,0.018427432,-0.004213151,-0.0085452,-0.010487368,0.176012912,-0.09944513,0.023925893
-0.097756624,-0.174824193,-0.979734719,0.005975343,-0.013300821,0.019026041,-0.026780965,-0.004406986,-0.019301847,0.175727207,-0.099449504,0.02360281
-0.097756624,-0.174824193,-0.979734719,0.005975343,-0.013300821,0.019026041,-0.026780965,-0.004406986,-0.019301847,0.175727207,-0.099449504,0.02360281
-0.097756624,-0.174824193,-0.979734719,0.005975343,-0.013300821,0.019026041,-0.026780965,-0.004406986,-0.019301847,0.175727207,-0.099449504,0.02360281
-0.097756624,-0.174824193,-0.979734719,0.005975343,-0.013300821,0.019026041,-0.026780965,-0.004406986,-0.019301847,0.175727207,-0.099449504,0.02360281
-0.097756624,-0.174824193,-0.979734719,0.005975343,-0.013300821,0.019026041,-0.026780965,-0.004406986,-0.019301847,0.175727207,-0.099449504,0.02360281
-0.097756624,-0.174824193,-0.979734719,0.005975343,-0.013300821,0.019026041,-0.026780965,-0.004406986,-0.019301847,0.175727207,-0.099449504,0.02360281
-0.097756624,-0.174824193,-0.979734719,0.005975343,-0.013300821,0.019026041,-0.026780965,-0.004406986,-0.019301847,0.175727207,-0.099449504,0.02360281
-0.097751759,-0.17397894,-0.979885638,0.001286045,-0.015382007,0.008831501,-0.036805525,0.006281538,-0.00273709,0.174868803,-0.09942937,0.023263221
-0.097751759,-0.17397894,-0.979885638,0.001286045,-0.015382007,0.008831501,-0.036805525,0.006281538,-0.00273709,0.174868803,-0.09942937,0.023263221
-0.097751759,-0.17397894,-0.979885638,0.001286045,-0.015382007,0.008831501,-0.036805525,0.006281538,-0.00273709,0.174868803,-0.09942937,0.023263221
-0.097751759,-0.17397894,-0.979885638,0.001286045,-0.015382007,0.008831501,-0.036805525,0.006281538,-0.00273709,0.174868803,-0.09942937,0.023263221
-0.097751759,-0.17397894,-0.979885638,0.001286045,-0.015382007,0.008831501,-0.036805525,0.006281538,-0.00273709,0.174868803,-0.09942937,0.023263221
-0.097751759,-0.17397894,-0.979885638,0.001286045,-0.015382007,0.008831501,-0.036805525,0.006281538,-0.00273709,0.174868803,-0.09942937,0.023263221
-0.097751759,-0.17397894,-0.979885638,0.001286045,-0.015382007,0.008831501,-0.036805525,0.006281538,-0.00273709,0.174868803,-0.09942937,0.023263221
-0.097751759,-0.17397894,-0.979885638,0.001286045,-0.015382007,0.008831501,-0.036805525,0.006281538,-0.00273709,0.174868803,-0.09942937,0.023263221
-0.097838208,-0.172857508,-0.980075479,-0.008225292,-0.004891485,0.015491068,-0.040131204,0.016102621,0.01885747,0.173730117,-0.099497573,0.023401743
-0.097838208,-0.172857508,-0.980075479,-0.008225292,-0.004891485,0.015491068,-0.040131204,0.016102621,0.01885747,0.173730117,-0.099497573,0.023401743
-0.097838208,-0.172857508,-0.980075479,-0.008225292,-0.004891485,0.015491068,-0.040131204,0.016102621,0.01885747,0.173730117,-0.099497573,0.023401743
-0.097736314,-0.172395542,-0.980167031,-0.010753319,0.003862843,0.018100321,-0.002146604,0.004374629,0.034063853,0.173261104,-0.099385418,0.023892975
-0.097736314,-0.172395542,-0.980167031,-0.010753319,0.003862843,0.018100321,-0.002146604,0.004374629,0.034063853,0.173261104,-0.099385418,0.023892975
-0.097736314,-0.172395542,-0.980167031,-0.010753319,0.003862843,0.018100321,-0.002146604,0.004374629,0.034063853,0.173261104,-0.099385418,0.023892975
-0.097736314,-0.172395542,-0.980167031,-0.010753319,0.003862843,0.018100321,-0.002146604,0.004374629,0.034063853,0.173261104,-0.099385418,0.023892975
-0.097736314,-0.172395542,-0.980167031,-0.010753319,0.003862843,0.018100321,-0.002146604,0.004374629,0.034063853,0.173261104,-0.099385418,0.023892975
-0.097736314,-0.172395542,-0.980167031,-0.010753319,0.003862843,0.018100321,-0.002146604,0.004374629,0.034063853,0.173261104,-0.099385418,0.023892975
-0.097674534,-0.172824889,-0.980097592,0.001010455,0.005985916,0.014948606,0.01240821,0.007067326,0.031085001,0.173697001,-0.099329995,0.024549858
-0.097674534,-0.172824889,-0.980097592,0.001010455,0.005985916,0.014948606,0.01240821,0.007067326,0.031085001,0.173697001,-0.099329995,0.024549858
-0.097674534,-0.172824889,-0.980097592,0.001010455,0.005985916,0.014948606,0.01240821,0.007067326,0.031085001,0.173697001,-0.099329995,0.024549858
-0.097674534,-0.172824889,-0.980097592,0.001010455,0.005985916,0.014948606,0.01240821,0.007067326,0.031085001,0.173697001,-0.099329995,0.024549858
-0.097674534,-0.172824889,-0.980097592,0.001010455,0.005985916,0.014948606,0.01240821,0.007067326,0.031085001,0.173697001,-0.099329995,0.024549858
-0.097674534,-0.172824889,-0.980097592,0.001010455,0.005985916,0.014948606,0.01240821,0.007067326,0.031085001,0.173697001,-0.099329995,0.024549858
-0.097674534,-0.172824889,-0.980097592,0.001010455,0.005985916,0.014948606,0.01240821,0.007067326,0.031085001,0.173697001,-0.099329995,0.024549858
-0.097645432,-0.173472658,-0.979986012,-0.000575036,0.009807512,0.010305166,0.01568752,0.007921427,0.020302767,0.174354698,-0.099311827,0.02502577
-0.097645432,-0.173472658,-0.979986012,-0.000575036,0.009807512,0.010305166,0.01568752,0.007921427,0.020302767,0.174354698,-0.099311827,0.02502577
-0.097645432,-0.173472658,-0.979986012,-0.000575036,0.009807512,0.010305166,0.01568752,0.007921427,0.020302767,0.174354698,-0.099311827,0.02502577
-0.097645432,-0.173472658,-0.979986012,-0.000575036,0.009807512,0.010305166,0.01568752,0.007921427,0.020302767,0.174354698,-0.099311827,0.02502577
-0.097645432,-0.173472658,-0.979986012,-0.000575036,0.009807512,0.010305166,0.01568752,0.007921427,0.020302767,0.174354698,-0.099311827,0.02502577
-0.097645432,-0.173472658,-0.979986012,-0.000575036,0.009807512,0.010305166,0.01568752,0.007921427,0.020302767,0.174354698,-0.099311827,0.02502577
-0.097645432,-0.173472658,-0.979986012,-0.000575036,0.009807512,0.010305166,0.01568752,0.007921427,0.020302767,0.174354698,-0.099311827,0.02502577
-0.097914413,-0.173944637,-0.979875505,0.00262361,0.018229291,0.007402301,0.006491026,-0.000187862,0.028895993,0.174833972,-0.099594748,0.025551977
-0.097914413,-0.173944637,-0.979875505,0.00262361,0.018229291,0.007402301,0.006491026,-0.000187862,0.028895993,0.174833972,-0.099594748,0.025551977
-0.097914413,-0.173944637,-0.979875505,0.00262361,0.018229291,0.007402301,0.006491026,-0.000187862,0.028895993,0.174833972,-0.099594748,0.025551977
-0.098171979,-0.173666969,-0.979898989,5.83E-05,0.012763634,0.006678104,-0.016665068,0.004788315,0.026302446,0.174552012,-0.099852624,0.026146281
-0.098171979,-0.173666969,-0.979898989,5.83E-05,0.012763634,0.006678104,-0.016665068,0.004788315,0.026302446,0.174552012,-0.099852624,0.026146281
-0.098171979,-0.173666969,-0.979898989,5.83E-05,0.012763634,0.006678104,-0.016665068,0.004788315,0.026302446,0.174552012,-0.099852624,0.026146281
-0.098301284,-0.17376557,-0.979868531,0.00624536,0.019606665,0.010248721,0.039959248,-0.005364332,0.019604541,0.174652129,-0.099986352,0.026603425
-0.098301284,-0.17376557,-0.979868531,0.00624536,0.019606665,0.010248721,0.039959248,-0.005364332,0.019604541,0.174652129,-0.099986352,0.026603425
-0.098301284,-0.17376557,-0.979868531,0.00624536,0.019606665,0.010248721,0.039959248,-0.005364332,0.019604541,0.174652129,-0.099986352,0.026603425
-0.098301284,-0.17376557,-0.979868531,0.00624536,0.019606665,0.010248721,0.039959248,-0.005364332,0.019604541,0.174652129,-0.099986352,0.026603425
-0.098301284,-0.17376557,-0.979868531,0.00624536,0.019606665,0.010248721,0.039959248,-0.005364332,0.019604541,0.174652129,-0.099986352,0.026603425
-0.09851861,-0.17432633,-0.979747117,0.005257264,0.009348974,0.013880968,0.020841403,-0.007452178,0.014904541,0.17522158,-0.100218264,0.027061032
-0.09851861,-0.17432633,-0.979747117,0.005257264,0.009348974,0.013880968,0.020841403,-0.007452178,0.014904541,0.17522158,-0.100218264,0.027061032
-0.09851861,-0.17432633,-0.979747117,0.005257264,0.009348974,0.013880968,0.020841403,-0.007452178,0.014904541,0.17522158,-0.100218264,0.027061032
-0.098577783,-0.174150035,-0.979772508,0.007483184,-0.01415801,0.01289928,-0.003202242,-0.005182597,-0.016165601,0.175042551,-0.100275473,0.027055622
-0.098577783,-0.174150035,-0.979772508,0.007483184,-0.01415801,0.01289928,-0.003202242,-0.005182597,-0.016165601,0.175042551,-0.100275473,0.027055622
-0.098577783,-0.174150035,-0.979772508,0.007483184,-0.01415801,0.01289928,-0.003202242,-0.005182597,-0.016165601,0.175042551,-0.100275473,0.027055622
-0.098577783,-0.174150035,-0.979772508,0.007483184,-0.01415801,0.01289928,-0.003202242,-0.005182597,-0.016165601,0.175042551,-0.100275473,0.027055622
-0.098577783,-0.174150035,-0.979772508,0.007483184,-0.01415801,0.01289928,-0.003202242,-0.005182597,-0.016165601,0.175042551,-0.100275473,0.027055622
-0.098577783,-0.174150035,-0.979772508,0.007483184,-0.01415801,0.01289928,-0.003202242,-0.005182597,-0.016165601,0.175042551,-0.100275473,0.027055622
-0.098689176,-0.173957601,-0.979795516,0.01472044,-0.001410991,0.012617052,0.002295282,-0.018651232,-0.034549829,0.174847133,-0.10038569,0.026528948
-0.098689176,-0.173957601,-0.979795516,0.01472044,-0.001410991,0.012617052,0.002295282,-0.018651232,-0.034549829,0.174847133,-0.10038569,0.026528948
-0.098689176,-0.173957601,-0.979795516,0.01472044,-0.001410991,0.012617052,0.002295282,-0.018651232,-0.034549829,0.174847133,-0.10038569,0.026528948
-0.098831736,-0.173421249,-0.97987622,0.013077721,-0.005289018,0.012453616,-0.030594837,-0.016431632,-0.051807966,0.174302499,-0.100521502,0.025653512
-0.098831736,-0.173421249,-0.97987622,0.013077721,-0.005289018,0.012453616,-0.030594837,-0.016431632,-0.051807966,0.174302499,-0.100521502,0.025653512
-0.098831736,-0.173421249,-0.97987622,0.013077721,-0.005289018,0.012453616,-0.030594837,-0.016431632,-0.051807966,0.174302499,-0.100521502,0.025653512
-0.098831736,-0.173421249,-0.97987622,0.013077721,-0.005289018,0.012453616,-0.030594837,-0.016431632,-0.051807966,0.174302499,-0.100521502,0.025653512
-0.098831736,-0.173421249,-0.97987622,0.013077721,-0.005289018,0.012453616,-0.030594837,-0.016431632,-0.051807966,0.174302499,-0.100521502,0.025653512
-0.098831736,-0.173421249,-0.97987622,0.013077721,-0.005289018,0.012453616,-0.030594837,-0.016431632,-0.051807966,0.174302499,-0.100521502,0.025653512
-0.098886929,-0.172496036,-0.980033934,0.013911113,-0.002689451,0.013496399,-0.047468293,-0.02052623,-0.064648665,0.173363134,-0.100561181,0.024369128
-0.098886929,-0.172496036,-0.980033934,0.013911113,-0.002689451,0.013496399,-0.047468293,-0.02052623,-0.064648665,0.173363134,-0.100561181,0.024369128
-0.098889679,-0.171991095,-0.980122387,0.011487745,0.000223607,0.011585951,-0.050503805,-0.017764978,-0.077530533,0.172850533,-0.100554944,0.022836786
-0.098889679,-0.171991095,-0.980122387,0.011487745,0.000223607,0.011585951,-0.050503805,-0.017764978,-0.077530533,0.172850533,-0.100554944,0.022836786
-0.098889679,-0.171991095,-0.980122387,0.011487745,0.000223607,0.011585951,-0.050503805,-0.017764978,-0.077530533,0.172850533,-0.100554944,0.022836786
-0.098636329,-0.171386257,-0.980253875,0.007084019,-0.002135947,0.01145798,-0.028143689,-0.0049444,-0.065228008,0.17223657,-0.100285692,0.021162033
-0.098636329,-0.171386257,-0.980253875,0.007084019,-0.002135947,0.01145798,-0.028143689,-0.0049444,-0.065228008,0.17223657,-0.100285692,0.021162033
-0.098636329,-0.171386257,-0.980253875,0.007084019,-0.002135947,0.01145798,-0.028143689,-0.0049444,-0.065228008,0.17223657,-0.100285692,0.021162033
-0.098636329,-0.171386257,-0.980253875,0.007084019,-0.002135947,0.01145798,-0.028143689,-0.0049444,-0.065228008,0.17223657,-0.100285692,0.021162033
-0.098636329,-0.171386257,-0.980253875,0.007084019,-0.002135947,0.01145798,-0.028143689,-0.0049444,-0.065228008,0.17223657,-0.100285692,0.021162033
-0.098092392,-0.171878591,-0.980222225,-0.003195025,0.020786807,0.01318115,0.059384894,0.01041992,-0.061985075,0.172736318,-0.099739524,0.019958388
-0.098092392,-0.171878591,-0.980222225,-0.003195025,0.020786807,0.01318115,0.059384894,0.01041992,-0.061985075,0.172736318,-0.099739524,0.019958388
-0.098092392,-0.171878591,-0.980222225,-0.003195025,0.020786807,0.01318115,0.059384894,0.01041992,-0.061985075,0.172736318,-0.099739524,0.019958388
-0.098092392,-0.171878591,-0.980222225,-0.003195025,0.020786807,0.01318115,0.059384894,0.01041992,-0.061985075,0.172736318,-0.099739524,0.019958388
-0.098092392,-0.171878591,-0.980222225,-0.003195025,0.020786807,0.01318115,0.059384894,0.01041992,-0.061985075,0.172736318,-0.099739524,0.019958388
-0.098092392,-0.171878591,-0.980222225,-0.003195025,0.020786807,0.01318115,0.059384894,0.01041992,-0.061985075,0.172736318,-0.099739524,0.019958388
-0.098092392,-0.171878591,-0.980222225,-0.003195025,0.020786807,0.01318115,0.059384894,0.01041992,-0.061985075,0.172736318,-0.099739524,0.019958388
-0.098092392,-0.171878591,-0.980222225,-0.003195025,0.020786807,0.01318115,0.059384894,0.01041992,-0.061985075,0.172736318,-0.099739524,0.019958388
-0.098092392,-0.171878591,-0.980222225,-0.003195025,0.020786807,0.01318115,0.059384894,0.01041992,-0.061985075,0.172736318,-0.099739524,0.019958388
-0.096339047,-0.176208243,-0.979627192,-0.019291639,0.007813007,0.007398129,0.089733571,0.049922649,-0.028683204,0.177133085,-0.098027359,0.018399664
-0.096339047,-0.176208243,-0.979627192,-0.019291639,0.007813007,0.007398129,0.089733571,0.049922649,-0.028683204,0.177133085,-0.098027359,0.018399664
-0.096339047,-0.176208243,-0.979627192,-0.019291639,0.007813007,0.007398129,0.089733571,0.049922649,-0.028683204,0.177133085,-0.098027359,0.018399664
-0.096339047,-0.176208243,-0.979627192,-0.019291639,0.007813007,0.007398129,0.089733571,0.049922649,-0.028683204,0.177133085,-0.098027359,0.018399664
-0.096339047,-0.176208243,-0.979627192,-0.019291639,0.007813007,0.007398129,0.089733571,0.049922649,-0.028683204,0.177133085,-0.098027359,0.018399664
-0.096339047,-0.176208243,-0.979627192,-0.019291639,0.007813007,0.007398129,0.089733571,0.049922649,-0.028683204,0.177133085,-0.098027359,0.018399664
-0.096339047,-0.176208243,-0.979627192,-0.019291639,0.007813007,0.007398129,0.089733571,0.049922649,-0.028683204,0.177133085,-0.098027359,0.018399664
-0.095559739,-0.177909657,-0.979395986,-0.007451907,0.000359207,0.01803118,0.093109541,0.015068952,-0.022133373,0.178861809,-0.097262215,0.017970372
-0.095559739,-0.177909657,-0.979395986,-0.007451907,0.000359207,0.01803118,0.093109541,0.015068952,-0.022133373,0.178861809,-0.097262215,0.017970372
-0.095559739,-0.177909657,-0.979395986,-0.007451907,0.000359207,0.01803118,0.093109541,0.015068952,-0.022133373,0.178861809,-0.097262215,0.017970372
-0.095559739,-0.177909657,-0.979395986,-0.007451907,0.000359207,0.01803118,0.093109541,0.015068952,-0.022133373,0.178861809,-0.097262215,0.017970372
-0.095559739,-0.177909657,-0.979395986,-0.007451907,0.000359207,0.01803118,0.093109541,0.015068952,-0.022133373,0.178861809,-0.097262215,0.017970372
-0.095559739,-0.177909657,-0.979395986,-0.007451907,0.000359207,0.01803118,0.093109541,0.015068952,-0.022133373,0.178861809,-0.097262215,0.017970372
-0.095559739,-0.177909657,-0.979395986,-0.007451907,0.000359207,0.01803118,0.093109541,0.015068952,-0.022133373,0.178861809,-0.097262215,0.017970372
-0.095559739,-0.177909657,-0.979395986,-0.007451907,0.000359207,0.01803118,0.093109541,0.015068952,-0.022133373,0.178861809,-0.097262215,0.017970372
-0.09549769,-0.179670215,-0.979080617,0.006066382,0.018019468,0.014725029,0.07848262,-0.004337151,0.005149487,0.180651201,-0.097230567,0.018098894
-0.09549769,-0.179670215,-0.979080617,0.006066382,0.018019468,0.014725029,0.07848262,-0.004337151,0.005149487,0.180651201,-0.097230567,0.018098894
-0.09549769,-0.179670215,-0.979080617,0.006066382,0.018019468,0.014725029,0.07848262,-0.004337151,0.005149487,0.180651201,-0.097230567,0.018098894
-0.09549769,-0.179670215,-0.979080617,0.006066382,0.018019468,0.014725029,0.07848262,-0.004337151,0.005149487,0.180651201,-0.097230567,0.018098894
-0.09549769,-0.179670215,-0.979080617,0.006066382,0.018019468,0.014725029,0.07848262,-0.004337151,0.005149487,0.180651201,-0.097230567,0.018098894
-0.09549769,-0.179670215,-0.979080617,0.006066382,0.018019468,0.014725029,0.07848262,-0.004337151,0.005149487,0.180651201,-0.097230567,0.018098894
-0.097000375,-0.169164211,-0.980802953,-0.016921297,-0.222345024,0.038023293,-0.311260372,0.012929139,-0.135845289,0.169981594,-0.098578384,0.014249907
-0.097000375,-0.169164211,-0.980802953,-0.016921297,-0.222345024,0.038023293,-0.311260372,0.012929139,-0.135845289,0.169981594,-0.098578384,0.014249907
-0.096500896,-0.164179087,-0.98169893,0.005650535,-0.03955549,0.013345599,-0.267928958,0.016531184,-0.030263789,0.164925744,-0.097985092,0.012235411
-0.096500896,-0.164179087,-0.98169893,0.005650535,-0.03955549,0.013345599,-0.267928958,0.016531184,-0.030263789,0.164925744,-0.097985092,0.012235411
-0.096500896,-0.164179087,-0.98169893,0.005650535,-0.03955549,0.013345599,-0.267928958,0.016531184,-0.030263789,0.164925744,-0.097985092,0.012235411
-0.096500896,-0.164179087,-0.98169893,0.005650535,-0.03955549,0.013345599,-0.267928958,0.016531184,-0.030263789,0.164925744,-0.097985092,0.012235411
-0.096500896,-0.164179087,-0.98169893,0.005650535,-0.03955549,0.013345599,-0.267928958,0.016531184,-0.030263789,0.164925744,-0.097985092,0.012235411
-0.096500896,-0.164179087,-0.98169893,0.005650535,-0.03955549,0.013345599,-0.267928958,0.016531184,-0.030263789,0.164925744,-0.097985092,0.012235411
-0.096200734,-0.159453005,-0.98250705,0.003382005,0.061812818,0.020409822,-0.246854797,0.004164226,-0.05040352,0.160136537,-0.097602414,0.011048466
-0.096200734,-0.159453005,-0.98250705,0.003382005,0.061812818,0.020409822,-0.246854797,0.004164226,-0.05040352,0.160136537,-0.097602414,0.011048466
-0.096200734,-0.159453005,-0.98250705,0.003382005,0.061812818,0.020409822,-0.246854797,0.004164226,-0.05040352,0.160136537,-0.097602414,0.011048466
-0.096200734,-0.159453005,-0.98250705,0.003382005,0.061812818,0.020409822,-0.246854797,0.004164226,-0.05040352,0.160136537,-0.097602414,0.011048466
-0.096200734,-0.159453005,-0.98250705,0.003382005,0.061812818,0.020409822,-0.246854797,0.004164226,-0.05040352,0.160136537,-0.097602414,0.011048466
-0.096200734,-0.159453005,-0.98250705,0.003382005,0.061812818,0.020409822,-0.246854797,0.004164226,-0.05040352,0.160136537,-0.097602414,0.011048466
-0.095286667,-0.156398043,-0.983087003,-0.014942348,0.029872954,0.006173491,-0.165958971,0.023468938,-0.014428847,0.157042764,-0.096624146,0.009873824
-0.095286667,-0.156398043,-0.983087003,-0.014942348,0.029872954,0.006173491,-0.165958971,0.023468938,-0.014428847,0.157042764,-0.096624146,0.009873824
-0.095286667,-0.156398043,-0.983087003,-0.014942348,0.029872954,0.006173491,-0.165958971,0.023468938,-0.014428847,0.157042764,-0.096624146,0.009873824
-0.095286667,-0.156398043,-0.983087003,-0.014942348,0.029872954,0.006173491,-0.165958971,0.023468938,-0.014428847,0.157042764,-0.096624146,0.009873824
-0.094928771,-0.158484355,-0.98278749,-0.011760183,0.077522069,-0.000977278,-0.081575379,0.015118812,0.01831818,0.159155415,-0.096292627,0.009762197
-0.094928771,-0.158484355,-0.98278749,-0.011760183,0.077522069,-0.000977278,-0.081575379,0.015118812,0.01831818,0.159155415,-0.096292627,0.009762197
-0.094928771,-0.158484355,-0.98278749,-0.011760183,0.077522069,-0.000977278,-0.081575379,0.015118812,0.01831818,0.159155415,-0.096292627,0.009762197
-0.094928771,-0.158484355,-0.98278749,-0.011760183,0.077522069,-0.000977278,-0.081575379,0.015118812,0.01831818,0.159155415,-0.096292627,0.009762197
-0.094928771,-0.158484355,-0.98278749,-0.011760183,0.077522069,-0.000977278,-0.081575379,0.015118812,0.01831818,0.159155415,-0.096292627,0.009762197
-0.095055752,-0.159734204,-0.982572854,-0.013723612,0.065878302,0.01602,-0.017598318,-0.006053148,0.021647451,0.160421391,-0.096441566,0.010100706
-0.095386818,-0.159917712,-0.982510924,-0.01499474,0.030188367,0.016904116,0.048547052,-0.038381271,0.029211786,0.160607292,-0.09678143,0.010724516
-0.095386818,-0.159917712,-0.982510924,-0.01499474,0.030188367,0.016904116,0.048547052,-0.038381271,0.029211786,0.160607292,-0.09678143,0.010724516
-0.095386818,-0.159917712,-0.982510924,-0.01499474,0.030188367,0.016904116,0.048547052,-0.038381271,0.029211786,0.160607292,-0.09678143,0.010724516
-0.095386818,-0.159917712,-0.982510924,-0.01499474,0.030188367,0.016904116,0.048547052,-0.038381271,0.029211786,0.160607292,-0.09678143,0.010724516
-0.095386818,-0.159917712,-0.982510924,-0.01499474,0.030188367,0.016904116,0.048547052,-0.038381271,0.029211786,0.160607292,-0.09678143,0.010724516
-0.095386818,-0.159917712,-0.982510924,-0.01499474,0.030188367,0.016904116,0.048547052,-0.038381271,0.029211786,0.160607292,-0.09678143,0.010724516
-0.09637621,-0.160796762,-0.982270837,-0.006909959,0.025513291,0.032090724,0.075362034,-0.040998518,0.054837573,0.161497859,-0.097802679,0.011713605
-0.09637621,-0.160796762,-0.982270837,-0.006909959,0.025513291,0.032090724,0.075362034,-0.040998518,0.054837573,0.161497859,-0.097802679,0.011713605
-0.09637621,-0.160796762,-0.982270837,-0.006909959,0.025513291,0.032090724,0.075362034,-0.040998518,0.054837573,0.161497859,-0.097802679,0.011713605
-0.09637621,-0.160796762,-0.982270837,-0.006909959,0.025513291,0.032090724,0.075362034,-0.040998518,0.054837573,0.161497859,-0.097802679,0.011713605
-0.09637621,-0.160796762,-0.982270837,-0.006909959,0.025513291,0.032090724,0.075362034,-0.040998518,0.054837573,0.161497859,-0.097802679,0.011713605
-0.09637621,-0.160796762,-0.982270837,-0.006909959,0.025513291,0.032090724,0.075362034,-0.040998518,0.054837573,0.161497859,-0.097802679,0.011713605
-0.09637621,-0.160796762,-0.982270837,-0.006909959,0.025513291,0.032090724,0.075362034,-0.040998518,0.054837573,0.161497859,-0.097802679,0.011713605
-0.09637621,-0.160796762,-0.982270837,-0.006909959,0.025513291,0.032090724,0.075362034,-0.040998518,0.054837573,0.161497859,-0.097802679,0.011713605
-0.09637621,-0.160796762,-0.982270837,-0.006909959,0.025513291,0.032090724,0.075362034,-0.040998518,0.054837573,0.161497859,-0.097802679,0.011713605
-0.09637621,-0.160796762,-0.982270837,-0.006909959,0.025513291,0.032090724,0.075362034,-0.040998518,0.054837573,0.161497859,-0.097802679,0.011713605
-0.09637621,-0.160796762,-0.982270837,-0.006909959,0.025513291,0.032090724,0.075362034,-0.040998518,0.054837573,0.161497859,-0.097802679,0.011713605
-0.097557269,-0.160332397,-0.982230186,0.003258541,0.00289318,0.000677943,0.036048945,-0.016556159,0.051882904,0.161027403,-0.098997525,0.012946027
-0.097557269,-0.160332397,-0.982230186,0.003258541,0.00289318,0.000677943,0.036048945,-0.016556159,0.051882904,0.161027403,-0.098997525,0.012946027
-0.097557269,-0.160332397,-0.982230186,0.003258541,0.00289318,0.000677943,0.036048945,-0.016556159,0.051882904,0.161027403,-0.098997525,0.012946027
-0.0980004,-0.159698978,-0.982289255,-0.004187115,-0.005278096,0.011952221,0.041879177,-0.009205071,0.027454423,0.160385708,-0.099438308,0.013573394
-0.0980004,-0.159698978,-0.982289255,-0.004187115,-0.005278096,0.011952221,0.041879177,-0.009205071,0.027454423,0.160385708,-0.099438308,0.013573394
-0.0980004,-0.159698978,-0.982289255,-0.004187115,-0.005278096,0.011952221,0.041879177,-0.009205071,0.027454423,0.160385708,-0.099438308,0.013573394
-0.0980004,-0.159698978,-0.982289255,-0.004187115,-0.005278096,0.011952221,0.041879177,-0.009205071,0.027454423,0.160385708,-0.099438308,0.013573394
-0.0980004,-0.159698978,-0.982289255,-0.004187115,-0.005278096,0.011952221,0.041879177,-0.009205071,0.027454423,0.160385708,-0.099438308,0.013573394
-0.0980004,-0.159698978,-0.982289255,-0.004187115,-0.005278096,0.011952221,0.041879177,-0.009205071,0.027454423,0.160385708,-0.099438308,0.013573394
-0.0980004,-0.159698978,-0.982289255,-0.004187115,-0.005278096,0.011952221,0.041879177,-0.009205071,0.027454423,0.160385708,-0.099438308,0.013573394
-0.0980004,-0.159698978,-0.982289255,-0.004187115,-0.005278096,0.011952221,0.041879177,-0.009205071,0.027454423,0.160385708,-0.099438308,0.013573394
-0.098560467,-0.159751981,-0.982224584,0.011753835,-0.016394496,0.024125099,0.048230335,-0.013846332,0.01359581,0.160439401,-0.10000936,0.01424392
-0.098560467,-0.159751981,-0.982224584,0.011753835,-0.016394496,0.024125099,0.048230335,-0.013846332,0.01359581,0.160439401,-0.10000936,0.01424392
-0.098560467,-0.159751981,-0.982224584,0.011753835,-0.016394496,0.024125099,0.048230335,-0.013846332,0.01359581,0.160439401,-0.10000936,0.01424392
-0.098560467,-0.159751981,-0.982224584,0.011753835,-0.016394496,0.024125099,0.048230335,-0.013846332,0.01359581,0.160439401,-0.10000936,0.01424392
-0.098560467,-0.159751981,-0.982224584,0.011753835,-0.016394496,0.024125099,0.048230335,-0.013846332,0.01359581,0.160439401,-0.10000936,0.01424392
-0.098560467,-0.159751981,-0.982224584,0.011753835,-0.016394496,0.024125099,0.048230335,-0.013846332,0.01359581,0.160439401,-0.10000936,0.01424392
-0.098560467,-0.159751981,-0.982224584,0.011753835,-0.016394496,0.024125099,0.048230335,-0.013846332,0.01359581,0.160439401,-0.10000936,0.01424392