gravityX,gravityY,gravityZ,accelX,accelY,accelZ,rotRateX,rotRatY,rotRateZ,attPitch,attRoll,attYaw
-0.047244951,-0.318908066,-0.946607411,0.001972146,-0.022400349,0.018659353,0.0405352,0.015282901,-0.009670098,0.324577176,-0.049868385,0.007738197
-0.047244951,-0.318908066,-0.946607411,0.001972146,-0.022400349,0.018659353,0.0405352,0.015282901,-0.009670098,0.324577176,-0.049868385,0.007738197
-0.047244951,-0.318908066,-0.946607411,0.001972146,-0.022400349,0.018659353,0.0405352,0.015282901,-0.009670098,0.324577176,-0.049868385,0.007738197
-0.047244951,-0.318908066,-0.946607411,0.001972146,-0.022400349,0.018659353,0.0405352,0.015282901,-0.009670098,0.324577176,-0.049868385,0.007738197
-0.047244951,-0.318908066,-0.946607411,0.001972146,-0.022400349,0.018659353,0.0405352,0.015282901,-0.009670098,0.324577176,-0.049868385,0.007738197
-0.047244951,-0.318908066,-0.946607411,0.001972146,-0.022400349,0.018659353,0.0405352,0.015282901,-0.009670098,0.324577176,-0.049868385,0.007738197
-0.047244951,-0.318908066,-0.946607411,0.001972146,-0.022400349,0.018659353,0.0405352,0.015282901,-0.009670098,0.324577176,-0.049868385,0.007738197
-0.047244951,-0.318908066,-0.946607411,0.001972146,-0.022400349,0.018659353,0.0405352,0.015282901,-0.009670098,0.324577176,-0.049868385,0.007738197
-0.047024623,-0.31934002,-0.946472764,0.009976298,-0.027629495,0.01986748,0.003595863,0.001380098,0.005899434,0.325032962,-0.049643252,0.007734711
-0.047024623,-0.31934002,-0.946472764,0.009976298,-0.027629495,0.01986748,0.003595863,0.001380098,0.005899434,0.325032962,-0.049643252,0.007734711
-0.047024623,-0.31934002,-0.946472764,0.009976298,-0.027629495,0.01986748,0.003595863,0.001380098,0.005899434,0.325032962,-0.049643252,0.007734711
-0.047024623,-0.31934002,-0.946472764,0.009976298,-0.027629495,0.01986748,0.003595863,0.001380098,0.005899434,0.325032962,-0.049643252,0.007734711
-0.047024623,-0.31934002,-0.946472764,0.009976298,-0.027629495,0.01986748,0.003595863,0.001380098,0.005899434,0.325032962,-0.049643252,0.007734711
-0.047024623,-0.31934002,-0.946472764,0.009976298,-0.027629495,0.01986748,0.003595863,0.001380098,0.005899434,0.325032962,-0.049643252,0.007734711
-0.047024623,-0.31934002,-0.946472764,0.009976298,-0.027629495,0.01986748,0.003595863,0.001380098,0.005899434,0.325032962,-0.049643252,0.007734711
-0.047024623,-0.31934002,-0.946472764,0.009976298,-0.027629495,0.01986748,0.003595863,0.001380098,0.005899434,0.325032962,-0.049643252,0.007734711
-0.047024623,-0.31934002,-0.946472764,0.009976298,-0.027629495,0.01986748,0.003595863,0.001380098,0.005899434,0.325032962,-0.049643252,0.007734711
-0.047185071,-0.319254786,-0.946493506,0.005925324,-0.015065104,0.015875161,-0.011912602,-0.012387306,0.010088534,0.324943019,-0.049811265,0.00790652
-0.047185071,-0.319254786,-0.946493506,0.005925324,-0.015065104,0.015875161,-0.011912602,-0.012387306,0.010088534,0.324943019,-0.049811265,0.00790652
-0.047185071,-0.319254786,-0.946493506,0.005925324,-0.015065104,0.015875161,-0.011912602,-0.012387306,0.010088534,0.324943019,-0.049811265,0.00790652
-0.047185071,-0.319254786,-0.946493506,0.005925324,-0.015065104,0.015875161,-0.011912602,-0.012387306,0.010088534,0.324943019,-0.049811265,0.00790652
-0.047185071,-0.319254786,-0.946493506,0.005925324,-0.015065104,0.015875161,-0.011912602,-0.012387306,0.010088534,0.324943019,-0.049811265,0.00790652
-0.047185071,-0.319254786,-0.946493506,0.005925324,-0.015065104,0.015875161,-0.011912602,-0.012387306,0.010088534,0.324943019,-0.049811265,0.00790652
-0.047613785,-0.318991691,-0.94656074,0.008063015,-0.007729411,0.02506721,0.000530858,-0.014245418,0.003719742,0.324665402,-0.050259517,0.008122588
-0.047613785,-0.318991691,-0.94656074,0.008063015,-0.007729411,0.02506721,0.000530858,-0.014245418,0.003719742,0.324665402,-0.050259517,0.008122588
-0.047613785,-0.318991691,-0.94656074,0.008063015,-0.007729411,0.02506721,0.000530858,-0.014245418,0.003719742,0.324665402,-0.050259517,0.008122588
-0.047613785,-0.318991691,-0.94656074,0.008063015,-0.007729411,0.02506721,0.000530858,-0.014245418,0.003719742,0.324665402,-0.050259517,0.008122588
-0.047613785,-0.318991691,-0.94656074,0.008063015,-0.007729411,0.02506721,0.000530858,-0.014245418,0.003719742,0.324665402,-0.050259517,0.008122588
-0.047613785,-0.318991691,-0.94656074,0.008063015,-0.007729411,0.02506721,0.000530858,-0.014245418,0.003719742,0.324665402,-0.050259517,0.008122588
-0.047613785,-0.318991691,-0.94656074,0.008063015,-0.007729411,0.02506721,0.000530858,-0.014245418,0.003719742,0.324665402,-0.050259517,0.008122588
-0.047613785,-0.318991691,-0.94656074,0.008063015,-0.007729411,0.02506721,0.000530858,-0.014245418,0.003719742,0.324665402,-0.050259517,0.008122588
-0.047613785,-0.318991691,-0.94656074,0.008063015,-0.007729411,0.02506721,0.000530858,-0.014245418,0.003719742,0.324665402,-0.050259517,0.008122588
-0.047613785,-0.318991691,-0.94656074,0.008063015,-0.007729411,0.02506721,0.000530858,-0.014245418,0.003719742,0.324665402,-0.050259517,0.008122588
-0.047613785,-0.318991691,-0.94656074,0.008063015,-0.007729411,0.02506721,0.000530858,-0.014245418,0.003719742,0.324665402,-0.050259517,0.008122588
-0.047355652,-0.319487065,-0.946406603,-0.018730149,0.006941378,0.021220446,0.046827104,0.018480148,0.000331083,0.325188122,-0.049995626,0.008077515
-0.047355652,-0.319487065,-0.946406603,-0.018730149,0.006941378,0.021220446,0.046827104,0.018480148,0.000331083,0.325188122,-0.049995626,0.008077515
-0.047355652,-0.319487065,-0.946406603,-0.018730149,0.006941378,0.021220446,0.046827104,0.018480148,0.000331083,0.325188122,-0.049995626,0.008077515
-0.047355652,-0.319487065,-0.946406603,-0.018730149,0.006941378,0.021220446,0.046827104,0.018480148,0.000331083,0.325188122,-0.049995626,0.008077515
-0.047355652,-0.319487065,-0.946406603,-0.018730149,0.006941378,0.021220446,0.046827104,0.018480148,0.000331083,0.325188122,-0.049995626,0.008077515
-0.047355652,-0.319487065,-0.946406603,-0.018730149,0.006941378,0.021220446,0.046827104,0.018480148,0.000331083,0.325188122,-0.049995626,0.008077515
-0.047355652,-0.319487065,-0.946406603,-0.018730149,0.006941378,0.021220446,0.046827104,0.018480148,0.000331083,0.325188122,-0.049995626,0.008077515
-0.047355652,-0.319487065,-0.946406603,-0.018730149,0.006941378,0.021220446,0.046827104,0.018480148,0.000331083,0.325188122,-0.049995626,0.008077515
-0.047355652,-0.319487065,-0.946406603,-0.018730149,0.006941378,0.021220446,0.046827104,0.018480148,0.000331083,0.325188122,-0.049995626,0.008077515
-0.047355652,-0.319487065,-0.946406603,-0.018730149,0.006941378,0.021220446,0.046827104,0.018480148,0.000331083,0.325188122,-0.049995626,0.008077515
-0.047355652,-0.319487065,-0.946406603,-0.018730149,0.006941378,0.021220446,0.046827104,0.018480148,0.000331083,0.325188122,-0.049995626,0.008077515
-0.047355652,-0.319487065,-0.946406603,-0.018730149,0.006941378,0.021220446,0.046827104,0.018480148,0.000331083,0.325188122,-0.049995626,0.008077515
-0.047363345,-0.320239991,-0.946151733,0.00990304,-0.01078403,0.015716493,0.032793097,0.001947606,-0.006387326,0.325982797,-0.050017182,0.008006136
-0.047363345,-0.320239991,-0.946151733,0.00990304,-0.01078403,0.015716493,0.032793097,0.001947606,-0.006387326,0.325982797,-0.050017182,0.008006136
-0.047363345,-0.320239991,-0.946151733,0.00990304,-0.01078403,0.015716493,0.032793097,0.001947606,-0.006387326,0.325982797,-0.050017182,0.008006136
-0.043770872,-0.332911134,-0.941941738,-0.005011462,-0.006505281,0.013963223,0.018222731,0.015375894,-0.016660789,0.33938915,-0.046435362,0.006745252
-0.043770872,-0.332911134,-0.941941738,-0.005011462,-0.006505281,0.013963223,0.018222731,0.015375894,-0.016660789,0.33938915,-0.046435362,0.006745252
-0.043770872,-0.332911134,-0.941941738,-0.005011462,-0.006505281,0.013963223,0.018222731,0.015375894,-0.016660789,0.33938915,-0.046435362,0.006745252
-0.043770872,-0.332911134,-0.941941738,-0.005011462,-0.006505281,0.013963223,0.018222731,0.015375894,-0.016660789,0.33938915,-0.046435362,0.006745252
-0.043770872,-0.332911134,-0.941941738,-0.005011462,-0.006505281,0.013963223,0.018222731,0.015375894,-0.016660789,0.33938915,-0.046435362,0.006745252
-0.043770872,-0.332911134,-0.941941738,-0.005011462,-0.006505281,0.013963223,0.018222731,0.015375894,-0.016660789,0.33938915,-0.046435362,0.006745252
-0.043770872,-0.332911134,-0.941941738,-0.005011462,-0.006505281,0.013963223,0.018222731,0.015375894,-0.016660789,0.33938915,-0.046435362,0.006745252
-0.043770872,-0.332911134,-0.941941738,-0.005011462,-0.006505281,0.013963223,0.018222731,0.015375894,-0.016660789,0.33938915,-0.046435362,0.006745252
-0.046539843,-0.336469084,-0.940543771,0.010834333,-0.005296886,0.045478404,0.034572884,0.061265036,-0.018962506,0.343164843,-0.04944152,0.007639904
-0.046539843,-0.336469084,-0.940543771,0.010834333,-0.005296886,0.045478404,0.034572884,0.061265036,-0.018962506,0.343164843,-0.04944152,0.007639904
-0.046539843,-0.336469084,-0.940543771,0.010834333,-0.005296886,0.045478404,0.034572884,0.061265036,-0.018962506,0.343164843,-0.04944152,0.007639904
-0.042346831,-0.34243089,-0.938588202,0.003421739,0.02723074,0.008870065,0.101307817,-0.071190275,-0.050596442,0.349502979,-0.045087005,0.007200225
-0.042346831,-0.34243089,-0.938588202,0.003421739,0.02723074,0.008870065,0.101307817,-0.071190275,-0.050596442,0.349502979,-0.045087005,0.007200225
-0.042346831,-0.34243089,-0.938588202,0.003421739,0.02723074,0.008870065,0.101307817,-0.071190275,-0.050596442,0.349502979,-0.045087005,0.007200225
-0.042426404,-0.345138729,-0.937592268,-0.002358057,0.003754526,0.02011168,0.139688671,-0.033526052,0.005092815,0.352386601,-0.045219531,0.006845953
-0.042426404,-0.345138729,-0.937592268,-0.002358057,0.003754526,0.02011168,0.139688671,-0.033526052,0.005092815,0.352386601,-0.045219531,0.006845953
-0.042426404,-0.345138729,-0.937592268,-0.002358057,0.003754526,0.02011168,0.139688671,-0.033526052,0.005092815,0.352386601,-0.045219531,0.006845953
-0.042614829,-0.348919958,-0.936183095,0.008740399,0.00634557,0.010584831,0.150079563,-0.045017894,0.004899897,0.356418393,-0.045488357,0.00675888
-0.042614829,-0.348919958,-0.936183095,0.008740399,0.00634557,0.010584831,0.150079563,-0.045017894,0.004899897,0.356418393,-0.045488357,0.00675888
-0.042614829,-0.348919958,-0.936183095,0.008740399,0.00634557,0.010584831,0.150079563,-0.045017894,0.004899897,0.356418393,-0.045488357,0.00675888
-0.043382622,-0.351248443,-0.935276687,0.005495135,-0.004311174,0.018314898,0.148920476,-0.068306632,0.020825278,0.358904189,-0.046351576,0.007075378
-0.043382622,-0.351248443,-0.935276687,0.005495135,-0.004311174,0.018314898,0.148920476,-0.068306632,0.020825278,0.358904189,-0.046351576,0.007075378
-0.043382622,-0.351248443,-0.935276687,0.005495135,-0.004311174,0.018314898,0.148920476,-0.068306632,0.020825278,0.358904189,-0.046351576,0.007075378
-0.047068045,-0.363863736,-0.930262208,0.004770793,0.00575605,0.013727605,0.020029219,-0.001284249,-0.012103056,0.372412613,-0.050553425,0.007660379
-0.047068045,-0.363863736,-0.930262208,0.004770793,0.00575605,0.013727605,0.020029219,-0.001284249,-0.012103056,0.372412613,-0.050553425,0.007660379
-0.047068045,-0.363863736,-0.930262208,0.004770793,0.00575605,0.013727605,0.020029219,-0.001284249,-0.012103056,0.372412613,-0.050553425,0.007660379
-0.047068045,-0.363863736,-0.930262208,0.004770793,0.00575605,0.013727605,0.020029219,-0.001284249,-0.012103056,0.372412613,-0.050553425,0.007660379
-0.047068045,-0.363863736,-0.930262208,0.004770793,0.00575605,0.013727605,0.020029219,-0.001284249,-0.012103056,0.372412613,-0.050553425,0.007660379
-0.047068045,-0.363863736,-0.930262208,0.004770793,0.00575605,0.013727605,0.020029219,-0.001284249,-0.012103056,0.372412613,-0.050553425,0.007660379
-0.047208153,-0.365313321,-0.929686785,0.009305436,0.004352301,0.014342368,0.025691232,-0.008519016,-0.008830297,0.373969375,-0.050734977,0.007532919
-0.047208153,-0.365313321,-0.929686785,0.009305436,0.004352301,0.014342368,0.025691232,-0.008519016,-0.008830297,0.373969375,-0.050734977,0.007532919
-0.047208153,-0.365313321,-0.929686785,0.009305436,0.004352301,0.014342368,0.025691232,-0.008519016,-0.008830297,0.373969375,-0.050734977,0.007532919
-0.047208153,-0.365313321,-0.929686785,0.009305436,0.004352301,0.014342368,0.025691232,-0.008519016,-0.008830297,0.373969375,-0.050734977,0.007532919
-0.047208153,-0.365313321,-0.929686785,0.009305436,0.004352301,0.014342368,0.025691232,-0.008519016,-0.008830297,0.373969375,-0.050734977,0.007532919
-0.047208153,-0.365313321,-0.929686785,0.009305436,0.004352301,0.014342368,0.025691232,-0.008519016,-0.008830297,0.373969375,-0.050734977,0.007532919
-0.047350783,-0.36623171,-0.92931813,0.004763622,-0.003136963,0.017391682,0.022409951,-0.008955242,0.001186918,0.374956117,-0.050908154,0.00751119
-0.047350783,-0.36623171,-0.92931813,0.004763622,-0.003136963,0.017391682,0.022409951,-0.008955242,0.001186918,0.374956117,-0.050908154,0.00751119
-0.047350783,-0.36623171,-0.92931813,0.004763622,-0.003136963,0.017391682,0.022409951,-0.008955242,0.001186918,0.374956117,-0.050908154,0.00751119
-0.047577485,-0.367047131,-0.928984821,0.003983244,0.00420928,0.013381004,0.034696605,-0.017718568,0.001817661,0.375832593,-0.051169786,0.007587116
-0.047577485,-0.367047131,-0.928984821,0.003983244,0.00420928,0.013381004,0.034696605,-0.017718568,0.001817661,0.375832593,-0.051169786,0.007587116
-0.047577485,-0.367047131,-0.928984821,0.003983244,0.00420928,0.013381004,0.034696605,-0.017718568,0.001817661,0.375832593,-0.051169786,0.007587116
-0.047776867,-0.368480682,-0.928406894,0.000505254,0.002072275,0.013352394,0.044807628,-0.0147976,-0.002784814,0.377374166,-0.051415774,0.00748437
-0.047776867,-0.368480682,-0.928406894,0.000505254,0.002072275,0.013352394,0.044807628,-0.0147976,-0.002784814,0.377374166,-0.051415774,0.00748437
-0.047776867,-0.368480682,-0.928406894,0.000505254,0.002072275,0.013352394,0.044807628,-0.0147976,-0.002784814,0.377374166,-0.051415774,0.00748437
-0.047776867,-0.368480682,-0.928406894,0.000505254,0.002072275,0.013352394,0.044807628,-0.0147976,-0.002784814,0.377374166,-0.051415774,0.00748437
-0.047776867,-0.368480682,-0.928406894,0.000505254,0.002072275,0.013352394,0.044807628,-0.0147976,-0.002784814,0.377374166,-0.051415774,0.00748437
-0.047842819,-0.3694022,-0.928037226,0.000464398,-0.003170758,0.016003966,0.034635417,-0.012446562,0.001494619,0.378365643,-0.051507097,0.007459401
-0.047842819,-0.3694022,-0.928037226,0.000464398,-0.003170758,0.016003966,0.034635417,-0.012446562,0.001494619,0.378365643,-0.051507097,0.007459401
-0.047842819,-0.3694022,-0.928037226,0.000464398,-0.003170758,0.016003966,0.034635417,-0.012446562,0.001494619,0.378365643,-0.051507097,0.007459401
-0.047842819,-0.3694022,-0.928037226,0.000464398,-0.003170758,0.016003966,0.034635417,-0.012446562,0.001494619,0.378365643,-0.051507097,0.007459401
-0.047842819,-0.3694022,-0.928037226,0.000464398,-0.003170758,0.016003966,0.034635417,-0.012446562,0.001494619,0.378365643,-0.051507097,0.007459401
-0.047842819,-0.3694022,-0.928037226,0.000464398,-0.003170758,0.016003966,0.034635417,-0.012446562,0.001494619,0.378365643,-0.051507097,0.007459401
-0.047842819,-0.3694022,-0.928037226,0.000464398,-0.003170758,0.016003966,0.034635417,-0.012446562,0.001494619,0.378365643,-0.051507097,0.007459401
-0.047842819,-0.3694022,-0.928037226,0.000464398,-0.003170758,0.016003966,0.034635417,-0.012446562,0.001494619,0.378365643,-0.051507097,0.007459401
-0.048009511,-0.369774163,-0.927880466,0.001317732,-0.006827116,0.015191078,0.012488678,-0.017384935,0.003646347,0.378765941,-0.051694953,0.007453185
-0.048009511,-0.369774163,-0.927880466,0.001317732,-0.006827116,0.015191078,0.012488678,-0.017384935,0.003646347,0.378765941,-0.051694953,0.007453185
-0.048009511,-0.369774163,-0.927880466,0.001317732,-0.006827116,0.015191078,0.012488678,-0.017384935,0.003646347,0.378765941,-0.051694953,0.007453185
-0.048009511,-0.369774163,-0.927880466,0.001317732,-0.006827116,0.015191078,0.012488678,-0.017384935,0.003646347,0.378765941,-0.051694953,0.007453185
-0.048009511,-0.369774163,-0.927880466,0.001317732,-0.006827116,0.015191078,0.012488678,-0.017384935,0.003646347,0.378765941,-0.051694953,0.007453185
-0.048009511,-0.369774163,-0.927880466,0.001317732,-0.006827116,0.015191078,0.012488678,-0.017384935,0.003646347,0.378765941,-0.051694953,0.007453185
-0.048009511,-0.369774163,-0.927880466,0.001317732,-0.006827116,0.015191078,0.012488678,-0.017384935,0.003646347,0.378765941,-0.051694953,0.007453185
-0.048009511,-0.369774163,-0.927880466,0.001317732,-0.006827116,0.015191078,0.012488678,-0.017384935,0.003646347,0.378765941,-0.051694953,0.007453185
-0.048219845,-0.369871765,-0.927830637,-0.000425059,-0.000809073,0.016377211,0.007264275,-0.011106944,0.000451832,0.378871003,-0.051923809,0.007438714
-0.048219845,-0.369871765,-0.927830637,-0.000425059,-0.000809073,0.016377211,0.007264275,-0.011106944,0.000451832,0.378871003,-0.051923809,0.007438714
-0.048219845,-0.369871765,-0.927830637,-0.000425059,-0.000809073,0.016377211,0.007264275,-0.011106944,0.000451832,0.378871003,-0.051923809,0.007438714
-0.048219845,-0.369871765,-0.927830637,-0.000425059,-0.000809073,0.016377211,0.007264275,-0.011106944,0.000451832,0.378871003,-0.051923809,0.007438714
-0.048219845,-0.369871765,-0.927830637,-0.000425059,-0.000809073,0.016377211,0.007264275,-0.011106944,0.000451832,0.378871003,-0.051923809,0.007438714
-0.048219845,-0.369871765,-0.927830637,-0.000425059,-0.000809073,0.016377211,0.007264275,-0.011106944,0.000451832,0.378871003,-0.051923809,0.007438714
-0.048219845,-0.369871765,-0.927830637,-0.000425059,-0.000809073,0.016377211,0.007264275,-0.011106944,0.000451832,0.378871003,-0.051923809,0.007438714
-0.048551764,-0.370174408,-0.927692652,0.002012581,0.005337656,0.014636993,0.027945878,-0.021813601,0.003612843,0.379196758,-0.052288342,0.007482921
-0.048551764,-0.370174408,-0.927692652,0.002012581,0.005337656,0.014636993,0.027945878,-0.021813601,0.003612843,0.379196758,-0.052288342,0.007482921
-0.048551764,-0.370174408,-0.927692652,0.002012581,0.005337656,0.014636993,0.027945878,-0.021813601,0.003612843,0.379196758,-0.052288342,0.007482921
-0.049195029,-0.371034831,-0.927314937,0.002899982,0.008670002,0.012184143,0.05182334,-0.035181012,0.010147815,0.380123143,-0.053001362,0.007656811
-0.049195029,-0.371034831,-0.927314937,0.002899982,0.008670002,0.012184143,0.05182334,-0.035181012,0.010147815,0.380123143,-0.053001362,0.007656811
-0.049195029,-0.371034831,-0.927314937,0.002899982,0.008670002,0.012184143,0.05182334,-0.035181012,0.010147815,0.380123143,-0.053001362,0.007656811
-0.049195029,-0.371034831,-0.927314937,0.002899982,0.008670002,0.012184143,0.05182334,-0.035181012,0.010147815,0.380123143,-0.053001362,0.007656811
-0.049195029,-0.371034831,-0.927314937,0.002899982,0.008670002,0.012184143,0.05182334,-0.035181012,0.010147815,0.380123143,-0.053001362,0.007656811
-0.049195029,-0.371034831,-0.927314937,0.002899982,0.008670002,0.012184143,0.05182334,-0.035181012,0.010147815,0.380123143,-0.053001362,0.007656811
-0.049917627,-0.372490495,-0.926692545,0.003271643,0.009561181,0.012614548,0.078310877,-0.040309459,0.008529146,0.381691185,-0.053814432,0.007939556
-0.049917627,-0.372490495,-0.926692545,0.003271643,0.009561181,0.012614548,0.078310877,-0.040309459,0.008529146,0.381691185,-0.053814432,0.007939556
-0.050767466,-0.374281257,-0.92592448,0.001893699,0.005935073,0.012868881,0.096062608,-0.044878393,0.011484349,0.383621571,-0.054774104,0.008255567
-0.050767466,-0.374281257,-0.92592448,0.001893699,0.005935073,0.012868881,0.096062608,-0.044878393,0.011484349,0.383621571,-0.054774104,0.008255567
-0.050767466,-0.374281257,-0.92592448,0.001893699,0.005935073,0.012868881,0.096062608,-0.044878393,0.011484349,0.383621571,-0.054774104,0.008255567
-0.052113943,-0.377268881,-0.924636304,0.000981882,-0.003711581,0.016707659,0.071745716,-0.036709704,0.004632674,0.386845474,-0.056301991,0.008767529
-0.052113943,-0.377268881,-0.924636304,0.000981882,-0.003711581,0.016707659,0.071745716,-0.036709704,0.004632674,0.386845474,-0.056301991,0.008767529
-0.052113943,-0.377268881,-0.924636304,0.000981882,-0.003711581,0.016707659,0.071745716,-0.036709704,0.004632674,0.386845474,-0.056301991,0.008767529
-0.053161196,-0.37883994,-0.923934042,0.00187657,0.001460761,0.013914883,0.045979567,-0.031495463,0.01294227,0.388542486,-0.0574745,0.009040471
-0.053161196,-0.37883994,-0.923934042,0.00187657,0.001460761,0.013914883,0.045979567,-0.031495463,0.01294227,0.388542486,-0.0574745,0.009040471
-0.053161196,-0.37883994,-0.923934042,0.00187657,0.001460761,0.013914883,0.045979567,-0.031495463,0.01294227,0.388542486,-0.0574745,0.009040471
-0.053723641,-0.379756331,-0.923525214,-0.003893375,0.002819657,0.015367627,0.052919123,-0.023872092,0.006040262,0.389532891,-0.058106872,0.009316408
-0.053723641,-0.379756331,-0.923525214,-0.003893375,0.002819657,0.015367627,0.052919123,-0.023872092,0.006040262,0.389532891,-0.058106872,0.009316408
-0.053723641,-0.379756331,-0.923525214,-0.003893375,0.002819657,0.015367627,0.052919123,-0.023872092,0.006040262,0.389532891,-0.058106872,0.009316408
-0.053875644,-0.381890386,-0.922635972,-0.002596959,-0.002996057,0.014310539,0.044624787,0.011688178,-0.011006845,0.391840834,-0.05832694,0.009326968
-0.053875644,-0.381890386,-0.922635972,-0.002596959,-0.002996057,0.014310539,0.044624787,0.011688178,-0.011006845,0.391840834,-0.05832694,0.009326968
-0.053875644,-0.381890386,-0.922635972,-0.002596959,-0.002996057,0.014310539,0.044624787,0.011688178,-0.011006845,0.391840834,-0.05832694,0.009326968
-0.053447455,-0.382580131,-0.922375083,-0.000171758,-0.003313452,0.014965177,0.022227898,0.017478473,-0.007284704,0.392587263,-0.057880743,0.00913164
-0.053447455,-0.382580131,-0.922375083,-0.000171758,-0.003313452,0.014965177,0.022227898,0.017478473,-0.007284704,0.392587263,-0.057880743,0.00913164
-0.053447455,-0.382580131,-0.922375083,-0.000171758,-0.003313452,0.014965177,0.022227898,0.017478473,-0.007284704,0.392587263,-0.057880743,0.00913164
-0.053447455,-0.382580131,-0.922375083,-0.000171758,-0.003313452,0.014965177,0.022227898,0.017478473,-0.007284704,0.392587263,-0.057880743,0.00913164
-0.053447455,-0.382580131,-0.922375083,-0.000171758,-0.003313452,0.014965177,0.022227898,0.017478473,-0.007284704,0.392587263,-0.057880743,0.00913164
-0.053447455,-0.382580131,-0.922375083,-0.000171758,-0.003313452,0.014965177,0.022227898,0.017478473,-0.007284704,0.392587263,-0.057880743,0.00913164
-0.053382572,-0.382776618,-0.922297359,0.009406906,-0.004398704,0.014811099,0.000392294,-1.60E-05,0.0076625,0.392799946,-0.057815496,0.009157766
-0.053382572,-0.382776618,-0.922297359,0.009406906,-0.004398704,0.014811099,0.000392294,-1.60E-05,0.0076625,0.392799946,-0.057815496,0.009157766
-0.053382572,-0.382776618,-0.922297359,0.009406906,-0.004398704,0.014811099,0.000392294,-1.60E-05,0.0076625,0.392799946,-0.057815496,0.009157766
-0.053382572,-0.382776618,-0.922297359,0.009406906,-0.004398704,0.014811099,0.000392294,-1.60E-05,0.0076625,0.392799946,-0.057815496,0.009157766
-0.053382572,-0.382776618,-0.922297359,0.009406906,-0.004398704,0.014811099,0.000392294,-1.60E-05,0.0076625,0.392799946,-0.057815496,0.009157766
-0.053382572,-0.382776618,-0.922297359,0.009406906,-0.004398704,0.014811099,0.000392294,-1.60E-05,0.0076625,0.392799946,-0.057815496,0.009157766
-0.053700075,-0.382900566,-0.922227442,0.005329892,0.005216271,0.016511202,0.013928954,-0.016376164,0.020480081,0.392934107,-0.058162992,0.009513918
-0.053700075,-0.382900566,-0.922227442,0.005329892,0.005216271,0.016511202,0.013928954,-0.016376164,0.020480081,0.392934107,-0.058162992,0.009513918
-0.053700075,-0.382900566,-0.922227442,0.005329892,0.005216271,0.016511202,0.013928954,-0.016376164,0.020480081,0.392934107,-0.058162992,0.009513918
-0.053700075,-0.382900566,-0.922227442,0.005329892,0.005216271,0.016511202,0.013928954,-0.016376164,0.020480081,0.392934107,-0.058162992,0.009513918
-0.053700075,-0.382900566,-0.922227442,0.005329892,0.005216271,0.016511202,0.013928954,-0.016376164,0.020480081,0.392934107,-0.058162992,0.009513918
-0.053700075,-0.382900566,-0.922227442,0.005329892,0.005216271,0.016511202,0.013928954,-0.016376164,0.020480081,0.392934107,-0.058162992,0.009513918
-0.053700075,-0.382900566,-0.922227442,0.005329892,0.005216271,0.016511202,0.013928954,-0.016376164,0.020480081,0.392934107,-0.058162992,0.009513918
-0.053700075,-0.382900566,-0.922227442,0.005329892,0.005216271,0.016511202,0.013928954,-0.016376164,0.020480081,0.392934107,-0.058162992,0.009513918
-0.054470811,-0.383517832,-0.921925724,0.007687546,0.011235148,0.009251475,0.039711483,-0.045362506,0.019875012,0.393602389,-0.059015125,0.010105119
-0.054470811,-0.383517832,-0.921925724,0.007687546,0.011235148,0.009251475,0.039711483,-0.045362506,0.019875012,0.393602389,-0.059015125,0.010105119
-0.054470811,-0.383517832,-0.921925724,0.007687546,0.011235148,0.009251475,0.039711483,-0.045362506,0.019875012,0.393602389,-0.059015125,0.010105119
-0.055546772,-0.384346426,-0.921516359,0.001927584,-0.002554059,0.015876412,0.034352258,-0.045760322,0.028495612,0.394499779,-0.060204733,0.010755049
-0.055546772,-0.384346426,-0.921516359,0.001927584,-0.002554059,0.015876412,0.034352258,-0.045760322,0.028495612,0.394499779,-0.060204733,0.010755049
-0.055546772,-0.384346426,-0.921516359,0.001927584,-0.002554059,0.015876412,0.034352258,-0.045760322,0.028495612,0.394499779,-0.060204733,0.010755049
-0.055546772,-0.384346426,-0.921516359,0.001927584,-0.002554059,0.015876412,0.034352258,-0.045760322,0.028495612,0.394499779,-0.060204733,0.010755049
-0.055546772,-0.384346426,-0.921516359,0.001927584,-0.002554059,0.015876412,0.034352258,-0.045760322,0.028495612,0.394499779,-0.060204733,0.010755049
-0.055546772,-0.384346426,-0.921516359,0.001927584,-0.002554059,0.015876412,0.034352258,-0.045760322,0.028495612,0.394499779,-0.060204733,0.010755049
-0.05648347,-0.385081947,-0.921152234,0.002604902,-0.001498014,0.014947712,0.032456607,-0.050510734,0.034869567,0.395296618,-0.061241599,0.011412985
-0.05648347,-0.385081947,-0.921152234,0.002604902,-0.001498014,0.014947712,0.032456607,-0.050510734,0.034869567,0.395296618,-0.061241599,0.011412985
-0.05648347,-0.385081947,-0.921152234,0.002604902,-0.001498014,0.014947712,0.032456607,-0.050510734,0.034869567,0.395296618,-0.061241599,0.011412985
-0.057543054,-0.385599077,-0.920870304,-0.001370922,-0.003559679,0.01645112,0.022686334,-0.049203113,0.034067154,0.395857034,-0.062406544,0.01213771
-0.057543054,-0.385599077,-0.920870304,-0.001370922,-0.003559679,0.01645112,0.022686334,-0.049203113,0.034067154,0.395857034,-0.062406544,0.01213771
-0.057543054,-0.385599077,-0.920870304,-0.001370922,-0.003559679,0.01645112,0.022686334,-0.049203113,0.034067154,0.395857034,-0.062406544,0.01213771
-0.057543054,-0.385599077,-0.920870304,-0.001370922,-0.003559679,0.01645112,0.022686334,-0.049203113,0.034067154,0.395857034,-0.062406544,0.01213771
-0.057543054,-0.385599077,-0.920870304,-0.001370922,-0.003559679,0.01645112,0.022686334,-0.049203113,0.034067154,0.395857034,-0.062406544,0.01213771
-0.057543054,-0.385599077,-0.920870304,-0.001370922,-0.003559679,0.01645112,0.022686334,-0.049203113,0.034067154,0.395857034,-0.062406544,0.01213771
-0.057543054,-0.385599077,-0.920870304,-0.001370922,-0.003559679,0.01645112,0.022686334,-0.049203113,0.034067154,0.395857034,-0.062406544,0.01213771
-0.058516368,-0.38569209,-0.920770049,-0.004303843,-0.00165078,0.017205238,0.009639921,-0.046982676,0.031905789,0.395957842,-0.063466206,0.01278507
-0.058516368,-0.38569209,-0.920770049,-0.004303843,-0.00165078,0.017205238,0.009639921,-0.046982676,0.031905789,0.395957842,-0.063466206,0.01278507
-0.058516368,-0.38569209,-0.920770049,-0.004303843,-0.00165078,0.017205238,0.009639921,-0.046982676,0.031905789,0.395957842,-0.063466206,0.01278507
-0.058516368,-0.38569209,-0.920770049,-0.004303843,-0.00165078,0.017205238,0.009639921,-0.046982676,0.031905789,0.395957842,-0.063466206,0.01278507
-0.058516368,-0.38569209,-0.920770049,-0.004303843,-0.00165078,0.017205238,0.009639921,-0.046982676,0.031905789,0.395957842,-0.063466206,0.01278507
-0.058516368,-0.38569209,-0.920770049,-0.004303843,-0.00165078,0.017205238,0.009639921,-0.046982676,0.031905789,0.395957842,-0.063466206,0.01278507
-0.058516368,-0.38569209,-0.920770049,-0.004303843,-0.00165078,0.017205238,0.009639921,-0.046982676,0.031905789,0.395957842,-0.063466206,0.01278507
-0.058516368,-0.38569209,-0.920770049,-0.004303843,-0.00165078,0.017205238,0.009639921,-0.046982676,0.031905789,0.395957842,-0.063466206,0.01278507
-0.058516368,-0.38569209,-0.920770049,-0.004303843,-0.00165078,0.017205238,0.009639921,-0.046982676,0.031905789,0.395957842,-0.063466206,0.01278507
-0.058516368,-0.38569209,-0.920770049,-0.004303843,-0.00165078,0.017205238,0.009639921,-0.046982676,0.031905789,0.395957842,-0.063466206,0.01278507
-0.059499267,-0.385737181,-0.920688152,-0.005182512,-0.00525257,0.016345203,-0.002591006,-0.039509639,0.030171167,0.396006691,-0.064535038,0.013411193
-0.059499267,-0.385737181,-0.920688152,-0.005182512,-0.00525257,0.016345203,-0.002591006,-0.039509639,0.030171167,0.396006691,-0.064535038,0.013411193
-0.059499267,-0.385737181,-0.920688152,-0.005182512,-0.00525257,0.016345203,-0.002591006,-0.039509639,0.030171167,0.396006691,-0.064535038,0.013411193
-0.059499267,-0.385737181,-0.920688152,-0.005182512,-0.00525257,0.016345203,-0.002591006,-0.039509639,0.030171167,0.396006691,-0.064535038,0.013411193
-0.059499267,-0.385737181,-0.920688152,-0.005182512,-0.00525257,0.016345203,-0.002591006,-0.039509639,0.030171167,0.396006691,-0.064535038,0.013411193
-0.059499267,-0.385737181,-0.920688152,-0.005182512,-0.00525257,0.016345203,-0.002591006,-0.039509639,0.030171167,0.396006691,-0.064535038,0.013411193
-0.06032116,-0.385647774,-0.920672119,-0.006939337,0.000792146,0.017046273,-0.015999382,-0.002242768,0.014886645,0.395909815,-0.065425103,0.014213489
-0.06032116,-0.385647774,-0.920672119,-0.006939337,0.000792146,0.017046273,-0.015999382,-0.002242768,0.014886645,0.395909815,-0.065425103,0.014213489
-0.06032116,-0.385647774,-0.920672119,-0.006939337,0.000792146,0.017046273,-0.015999382,-0.002242768,0.014886645,0.395909815,-0.065425103,0.014213489
-0.06032116,-0.385647774,-0.920672119,-0.006939337,0.000792146,0.017046273,-0.015999382,-0.002242768,0.014886645,0.395909815,-0.065425103,0.014213489
-0.06032116,-0.385647774,-0.920672119,-0.006939337,0.000792146,0.017046273,-0.015999382,-0.002242768,0.014886645,0.395909815,-0.065425103,0.014213489
-0.06032116,-0.385647774,-0.920672119,-0.006939337,0.000792146,0.017046273,-0.015999382,-0.002242768,0.014886645,0.395909815,-0.065425103,0.014213489
-0.06001386,-0.383592129,-0.921550572,-0.004789975,0.00227654,0.016047895,-0.060539182,0.024385329,-0.012054266,0.393682861,-0.065030871,0.014388572
-0.06001386,-0.383592129,-0.921550572,-0.004789975,0.00227654,0.016047895,-0.060539182,0.024385329,-0.012054266,0.393682861,-0.065030871,0.014388572
-0.06001386,-0.383592129,-0.921550572,-0.004789975,0.00227654,0.016047895,-0.060539182,0.024385329,-0.012054266,0.393682861,-0.065030871,0.014388572
-0.05954773,-0.382754982,-0.921928763,-0.005500231,0.004704893,0.014137268,-0.050196927,0.030236321,-0.031715587,0.392776542,-0.064500781,0.013906853
-0.05954773,-0.382754982,-0.921928763,-0.005500231,0.004704893,0.014137268,-0.050196927,0.030236321,-0.031715587,0.392776542,-0.064500781,0.013906853
-0.05954773,-0.382754982,-0.921928763,-0.005500231,0.004704893,0.014137268,-0.050196927,0.030236321,-0.031715587,0.392776542,-0.064500781,0.013906853
-0.0589233,-0.382113397,-0.922235012,0.003625721,-0.000468493,0.013924718,-0.054169632,0.018744551,-0.028653484,0.392082164,-0.063805125,0.013195562
-0.0589233,-0.382113397,-0.922235012,0.003625721,-0.000468493,0.013924718,-0.054169632,0.018744551,-0.028653484,0.392082164,-0.063805125,0.013195562
-0.0589233,-0.382113397,-0.922235012,0.003625721,-0.000468493,0.013924718,-0.054169632,0.018744551,-0.028653484,0.392082164,-0.063805125,0.013195562
-0.05860056,-0.381228894,-0.922621548,0.008231573,-0.003672242,0.01411283,-0.07388927,0.011284721,-0.009364207,0.391125207,-0.06343007,0.012691144
-0.05860056,-0.381228894,-0.922621548,0.008231573,-0.003672242,0.01411283,-0.07388927,0.011284721,-0.009364207,0.391125207,-0.06343007,0.012691144
-0.05860056,-0.381228894,-0.922621548,0.008231573,-0.003672242,0.01411283,-0.07388927,0.011284721,-0.009364207,0.391125207,-0.06343007,0.012691144
-0.05860056,-0.381228894,-0.922621548,0.008231573,-0.003672242,0.01411283,-0.07388927,0.011284721,-0.009364207,0.391125207,-0.06343007,0.012691144
-0.058530379,-0.379932731,-0.923160493,0.00277504,-0.000467062,0.013125956,-0.087296389,0.008561869,-0.006991437,0.389723588,-0.063317418,0.012488695
-0.058530379,-0.379932731,-0.923160493,0.00277504,-0.000467062,0.013125956,-0.087296389,0.008561869,-0.006991437,0.389723588,-0.063317418,0.012488695
-0.058530379,-0.379932731,-0.923160493,0.00277504,-0.000467062,0.013125956,-0.087296389,0.008561869,-0.006991437,0.389723588,-0.063317418,0.012488695
-0.058530379,-0.379932731,-0.923160493,0.00277504,-0.000467062,0.013125956,-0.087296389,0.008561869,-0.006991437,0.389723588,-0.063317418,0.012488695
-0.058530379,-0.379932731,-0.923160493,0.00277504,-0.000467062,0.013125956,-0.087296389,0.008561869,-0.006991437,0.389723588,-0.063317418,0.012488695
-0.058370661,-0.378391385,-0.923803449,-0.003625493,0.000723064,0.014394462,-0.092629053,0.013186061,-0.015302684,0.388057835,-0.063101268,0.012160641
-0.058370661,-0.378391385,-0.923803449,-0.003625493,0.000723064,0.014394462,-0.092629053,0.013186061,-0.015302684,0.388057835,-0.063101268,0.012160641
-0.058370661,-0.378391385,-0.923803449,-0.003625493,0.000723064,0.014394462,-0.092629053,0.013186061,-0.015302684,0.388057835,-0.063101268,0.012160641
-0.057832491,-0.37676692,-0.924501002,-0.000150602,-0.001847476,0.014603734,-0.100643136,0.020836232,-0.025008734,0.386303515,-0.062473952,0.011593145
-0.057832491,-0.37676692,-0.924501002,-0.000150602,-0.001847476,0.014603734,-0.100643136,0.020836232,-0.025008734,0.386303515,-0.062473952,0.011593145
-0.057832491,-0.37676692,-0.924501002,-0.000150602,-0.001847476,0.014603734,-0.100643136,0.020836232,-0.025008734,0.386303515,-0.062473952,0.011593145
-0.057832491,-0.37676692,-0.924501002,-0.000150602,-0.001847476,0.014603734,-0.100643136,0.020836232,-0.025008734,0.386303515,-0.062473952,0.011593145
-0.057832491,-0.37676692,-0.924501002,-0.000150602,-0.001847476,0.014603734,-0.100643136,0.020836232,-0.025008734,0.386303515,-0.062473952,0.011593145
-0.057832491,-0.37676692,-0.924501002,-0.000150602,-0.001847476,0.014603734,-0.100643136,0.020836232,-0.025008734,0.386303515,-0.062473952,0.011593145
-0.057147205,-0.375037044,-0.925246656,0.001544461,-0.002143055,0.013991416,-0.11322277,0.015952673,-0.0239815,0.384436743,-0.061685929,0.010888031
-0.057147205,-0.375037044,-0.925246656,0.001544461,-0.002143055,0.013991416,-0.11322277,0.015952673,-0.0239815,0.384436743,-0.061685929,0.010888031
-0.057147205,-0.375037044,-0.925246656,0.001544461,-0.002143055,0.013991416,-0.11322277,0.015952673,-0.0239815,0.384436743,-0.061685929,0.010888031
-0.057147205,-0.375037044,-0.925246656,0.001544461,-0.002143055,0.013991416,-0.11322277,0.015952673,-0.0239815,0.384436743,-0.061685929,0.010888031
-0.057147205,-0.375037044,-0.925246656,0.001544461,-0.002143055,0.013991416,-0.11322277,0.015952673,-0.0239815,0.384436743,-0.061685929,0.010888031
-0.057147205,-0.375037044,-0.925246656,0.001544461,-0.002143055,0.013991416,-0.11322277,0.015952673,-0.0239815,0.384436743,-0.061685929,0.010888031
-0.057147205,-0.375037044,-0.925246656,0.001544461,-0.002143055,0.013991416,-0.11322277,0.015952673,-0.0239815,0.384436743,-0.061685929,0.010888031
-0.057147205,-0.375037044,-0.925246656,0.001544461,-0.002143055,0.013991416,-0.11322277,0.015952673,-0.0239815,0.384436743,-0.061685929,0.010888031
-0.056792062,-0.37310335,-0.926049948,0.005492281,-0.00128451,0.012811065,-0.12144655,0.005027733,-0.006462747,0.38235168,-0.061250499,0.010421988
-0.056792062,-0.37310335,-0.926049948,0.005492281,-0.00128451,0.012811065,-0.12144655,0.005027733,-0.006462747,0.38235168,-0.061250499,0.010421988
-0.056792062,-0.37310335,-0.926049948,0.005492281,-0.00128451,0.012811065,-0.12144655,0.005027733,-0.006462747,0.38235168,-0.061250499,0.010421988
-0.056792062,-0.37310335,-0.926049948,0.005492281,-0.00128451,0.012811065,-0.12144655,0.005027733,-0.006462747,0.38235168,-0.061250499,0.010421988
-0.056792062,-0.37310335,-0.926049948,0.005492281,-0.00128451,0.012811065,-0.12144655,0.005027733,-0.006462747,0.38235168,-0.061250499,0.010421988
-0.056792062,-0.37310335,-0.926049948,0.005492281,-0.00128451,0.012811065,-0.12144655,0.005027733,-0.006462747,0.38235168,-0.061250499,0.010421988
-0.056765079,-0.371148109,-0.926836967,0.002581388,0.004404902,0.015459657,-0.109790914,0.003850979,-0.001038207,0.380245142,-0.061169615,0.010251342
-0.056765079,-0.371148109,-0.926836967,0.002581388,0.004404902,0.015459657,-0.109790914,0.003850979,-0.001038207,0.380245142,-0.061169615,0.010251342
-0.056765079,-0.371148109,-0.926836967,0.002581388,0.004404902,0.015459657,-0.109790914,0.003850979,-0.001038207,0.380245142,-0.061169615,0.010251342
-0.055758577,-0.350558639,-0.934879482,0.003726356,0.017460853,0.009616733,-0.112174973,0.006880857,0.013801459,0.35816754,-0.059571959,0.008344012
-0.055758577,-0.350558639,-0.934879482,0.003726356,0.017460853,0.009616733,-0.112174973,0.006880857,0.013801459,0.35816754,-0.059571959,0.008344012
-0.055758577,-0.350558639,-0.934879482,0.003726356,0.017460853,0.009616733,-0.112174973,0.006880857,0.013801459,0.35816754,-0.059571959,0.008344012
-0.055758577,-0.350558639,-0.934879482,0.003726356,0.017460853,0.009616733,-0.112174973,0.006880857,0.013801459,0.35816754,-0.059571959,0.008344012
-0.055758577,-0.350558639,-0.934879482,0.003726356,0.017460853,0.009616733,-0.112174973,0.006880857,0.013801459,0.35816754,-0.059571959,0.008344012
-0.055880331,-0.348813832,-0.935524583,0.004351653,0.005263805,0.009834588,-0.111251585,-0.007242939,0.013989478,0.356305148,-0.059660661,0.008477435
-0.055880331,-0.348813832,-0.935524583,0.004351653,0.005263805,0.009834588,-0.111251585,-0.007242939,0.013989478,0.356305148,-0.059660661,0.008477435
-0.055880331,-0.348813832,-0.935524583,0.004351653,0.005263805,0.009834588,-0.111251585,-0.007242939,0.013989478,0.356305148,-0.059660661,0.008477435
-0.055880331,-0.348813832,-0.935524583,0.004351653,0.005263805,0.009834588,-0.111251585,-0.007242939,0.013989478,0.356305148,-0.059660661,0.008477435
-0.055880331,-0.348813832,-0.935524583,0.004351653,0.005263805,0.009834588,-0.111251585,-0.007242939,0.013989478,0.356305148,-0.059660661,0.008477435
-0.055880331,-0.348813832,-0.935524583,0.004351653,0.005263805,0.009834588,-0.111251585,-0.007242939,0.013989478,0.356305148,-0.059660661,0.008477435
-0.056209594,-0.346876472,-0.936224937,0.00588635,-0.001403898,0.013434172,-0.113121681,-0.011399601,0.006715214,0.354238752,-0.059966573,0.008589474
-0.056209594,-0.346876472,-0.936224937,0.00588635,-0.001403898,0.013434172,-0.113121681,-0.011399601,0.006715214,0.354238752,-0.059966573,0.008589474
-0.056209594,-0.346876472,-0.936224937,0.00588635,-0.001403898,0.013434172,-0.113121681,-0.011399601,0.006715214,0.354238752,-0.059966573,0.008589474
-0.056209594,-0.346876472,-0.936224937,0.00588635,-0.001403898,0.013434172,-0.113121681,-0.011399601,0.006715214,0.354238752,-0.059966573,0.008589474
-0.056209594,-0.346876472,-0.936224937,0.00588635,-0.001403898,0.013434172,-0.113121681,-0.011399601,0.006715214,0.354238752,-0.059966573,0.008589474
-0.056209594,-0.346876472,-0.936224937,0.00588635,-0.001403898,0.013434172,-0.113121681,-0.011399601,0.006715214,0.354238752,-0.059966573,0.008589474
-0.056209594,-0.346876472,-0.936224937,0.00588635,-0.001403898,0.013434172,-0.113121681,-0.011399601,0.006715214,0.354238752,-0.059966573,0.008589474
-0.056507722,-0.344959408,-0.9369151,0.001026995,0.014379114,0.015009284,-0.095757328,-0.017822795,0.009465779,0.352195554,-0.060239562,0.008635059
-0.056507722,-0.344959408,-0.9369151,0.001026995,0.014379114,0.015009284,-0.095757328,-0.017822795,0.009465779,0.352195554,-0.060239562,0.008635059
-0.056507722,-0.344959408,-0.9369151,0.001026995,0.014379114,0.015009284,-0.095757328,-0.017822795,0.009465779,0.352195554,-0.060239562,0.008635059
-0.056507722,-0.344959408,-0.9369151,0.001026995,0.014379114,0.015009284,-0.095757328,-0.017822795,0.009465779,0.352195554,-0.060239562,0.008635059
-0.056507722,-0.344959408,-0.9369151,0.001026995,0.014379114,0.015009284,-0.095757328,-0.017822795,0.009465779,0.352195554,-0.060239562,0.008635059
-0.056507722,-0.344959408,-0.9369151,0.001026995,0.014379114,0.015009284,-0.095757328,-0.017822795,0.009465779,0.352195554,-0.060239562,0.008635059
-0.056507722,-0.344959408,-0.9369151,0.001026995,0.014379114,0.015009284,-0.095757328,-0.017822795,0.009465779,0.352195554,-0.060239562,0.008635059
-0.056898281,-0.343405157,-0.93746227,0.000654642,0.019310057,0.011009336,-0.057585977,-0.019164447,0.00554614,0.35054016,-0.060619582,0.008685176
-0.056898281,-0.343405157,-0.93746227,0.000654642,0.019310057,0.011009336,-0.057585977,-0.019164447,0.00554614,0.35054016,-0.060619582,0.008685176
-0.056898281,-0.343405157,-0.93746227,0.000654642,0.019310057,0.011009336,-0.057585977,-0.019164447,0.00554614,0.35054016,-0.060619582,0.008685176
-0.056898281,-0.343405157,-0.93746227,0.000654642,0.019310057,0.011009336,-0.057585977,-0.019164447,0.00554614,0.35054016,-0.060619582,0.008685176
-0.056898281,-0.343405157,-0.93746227,0.000654642,0.019310057,0.011009336,-0.057585977,-0.019164447,0.00554614,0.35054016,-0.060619582,0.008685176
-0.056898281,-0.343405157,-0.93746227,0.000654642,0.019310057,0.011009336,-0.057585977,-0.019164447,0.00554614,0.35054016,-0.060619582,0.008685176
-0.056898281,-0.343405157,-0.93746227,0.000654642,0.019310057,0.011009336,-0.057585977,-0.019164447,0.00554614,0.35054016,-0.060619582,0.008685176
-0.056898281,-0.343405157,-0.93746227,0.000654642,0.019310057,0.011009336,-0.057585977,-0.019164447,0.00554614,0.35054016,-0.060619582,0.008685176
-0.057029199,-0.34270367,-0.937710941,-0.005897772,0.019020617,0.01171577,-0.018246332,-0.00349943,-0.010095032,0.349793355,-0.060742645,0.008561607
-0.057029199,-0.34270367,-0.937710941,-0.005897772,0.019020617,0.01171577,-0.018246332,-0.00349943,-0.010095032,0.349793355,-0.060742645,0.008561607
-0.057029199,-0.34270367,-0.937710941,-0.005897772,0.019020617,0.01171577,-0.018246332,-0.00349943,-0.010095032,0.349793355,-0.060742645,0.008561607
-0.057029199,-0.34270367,-0.937710941,-0.005897772,0.019020617,0.01171577,-0.018246332,-0.00349943,-0.010095032,0.349793355,-0.060742645,0.008561607
-0.057029199,-0.34270367,-0.937710941,-0.005897772,0.019020617,0.01171577,-0.018246332,-0.00349943,-0.010095032,0.349793355,-0.060742645,0.008561607
-0.057029199,-0.34270367,-0.937710941,-0.005897772,0.019020617,0.01171577,-0.018246332,-0.00349943,-0.010095032,0.349793355,-0.060742645,0.008561607
-0.057029199,-0.34270367,-0.937710941,-0.005897772,0.019020617,0.01171577,-0.018246332,-0.00349943,-0.010095032,0.349793355,-0.060742645,0.008561607
-0.056878261,-0.342740417,-0.937706709,-0.001684699,0.01078707,0.01256603,-0.004355417,-0.002434674,-0.02019294,0.349832443,-0.060582544,0.008178987
-0.056878261,-0.342740417,-0.937706709,-0.001684699,0.01078707,0.01256603,-0.004355417,-0.002434674,-0.02019294,0.349832443,-0.060582544,0.008178987
-0.056878261,-0.342740417,-0.937706709,-0.001684699,0.01078707,0.01256603,-0.004355417,-0.002434674,-0.02019294,0.349832443,-0.060582544,0.008178987
-0.056878261,-0.342740417,-0.937706709,-0.001684699,0.01078707,0.01256603,-0.004355417,-0.002434674,-0.02019294,0.349832443,-0.060582544,0.008178987
-0.056878261,-0.342740417,-0.937706709,-0.001684699,0.01078707,0.01256603,-0.004355417,-0.002434674,-0.02019294,0.349832443,-0.060582544,0.008178987
-0.056878261,-0.342740417,-0.937706709,-0.001684699,0.01078707,0.01256603,-0.004355417,-0.002434674,-0.02019294,0.349832443,-0.060582544,0.008178987
-0.056878261,-0.342740417,-0.937706709,-0.001684699,0.01078707,0.01256603,-0.004355417,-0.002434674,-0.02019294,0.349832443,-0.060582544,0.008178987
-0.056878261,-0.342740417,-0.937706709,-0.001684699,0.01078707,0.01256603,-0.004355417,-0.002434674,-0.02019294,0.349832443,-0.060582544,0.008178987
-0.056875024,-0.342627257,-0.937748253,-4.00E-05,0.002815574,0.016223907,-0.015740085,-0.013758289,-0.011924038,0.349712,-0.060576425,0.007818736
-0.056875024,-0.342627257,-0.937748253,-4.00E-05,0.002815574,0.016223907,-0.015740085,-0.013758289,-0.011924038,0.349712,-0.060576425,0.007818736
-0.056875024,-0.342627257,-0.937748253,-4.00E-05,0.002815574,0.016223907,-0.015740085,-0.013758289,-0.011924038,0.349712,-0.060576425,0.007818736
-0.056875024,-0.342627257,-0.937748253,-4.00E-05,0.002815574,0.016223907,-0.015740085,-0.013758289,-0.011924038,0.349712,-0.060576425,0.007818736
-0.056875024,-0.342627257,-0.937748253,-4.00E-05,0.002815574,0.016223907,-0.015740085,-0.013758289,-0.011924038,0.349712,-0.060576425,0.007818736
-0.056875024,-0.342627257,-0.937748253,-4.00E-05,0.002815574,0.016223907,-0.015740085,-0.013758289,-0.011924038,0.349712,-0.060576425,0.007818736
-0.056921922,-0.341969341,-0.937985539,0.003180724,-0.002923518,0.015866101,-0.030415952,-0.006026153,-0.007491951,0.349011797,-0.060610954,0.007560756
-0.056921922,-0.341969341,-0.937985539,0.003180724,-0.002923518,0.015866101,-0.030415952,-0.006026153,-0.007491951,0.349011797,-0.060610954,0.007560756
-0.056921922,-0.341969341,-0.937985539,0.003180724,-0.002923518,0.015866101,-0.030415952,-0.006026153,-0.007491951,0.349011797,-0.060610954,0.007560756
-0.056921922,-0.341969341,-0.937985539,0.003180724,-0.002923518,0.015866101,-0.030415952,-0.006026153,-0.007491951,0.349011797,-0.060610954,0.007560756
-0.056921922,-0.341969341,-0.937985539,0.003180724,-0.002923518,0.015866101,-0.030415952,-0.006026153,-0.007491951,0.349011797,-0.060610954,0.007560756
-0.056921922,-0.341969341,-0.937985539,0.003180724,-0.002923518,0.015866101,-0.030415952,-0.006026153,-0.007491951,0.349011797,-0.060610954,0.007560756
-0.057137199,-0.340956956,-0.938340902,0.00168702,0.001953989,0.014558315,-0.049189068,-0.009555458,-0.004483219,0.347934668,-0.060816636,0.007447215
-0.057137199,-0.340956956,-0.938340902,0.00168702,0.001953989,0.014558315,-0.049189068,-0.009555458,-0.004483219,0.347934668,-0.060816636,0.007447215
-0.057137199,-0.340956956,-0.938340902,0.00168702,0.001953989,0.014558315,-0.049189068,-0.009555458,-0.004483219,0.347934668,-0.060816636,0.007447215
-0.057137199,-0.340956956,-0.938340902,0.00168702,0.001953989,0.014558315,-0.049189068,-0.009555458,-0.004483219,0.347934668,-0.060816636,0.007447215
-0.057137199,-0.340956956,-0.938340902,0.00168702,0.001953989,0.014558315,-0.049189068,-0.009555458,-0.004483219,0.347934668,-0.060816636,0.007447215
-0.057137199,-0.340956956,-0.938340902,0.00168702,0.001953989,0.014558315,-0.049189068,-0.009555458,-0.004483219,0.347934668,-0.060816636,0.007447215
-0.057137199,-0.340956956,-0.938340902,0.00168702,0.001953989,0.014558315,-0.049189068,-0.009555458,-0.004483219,0.347934668,-0.060816636,0.007447215
-0.057181701,-0.339987695,-0.938689828,-0.00881229,0.005867571,0.018996537,-0.042268284,0.013972335,-0.011581236,0.346903801,-0.060841319,0.007293236
-0.057181701,-0.339987695,-0.938689828,-0.00881229,0.005867571,0.018996537,-0.042268284,0.013972335,-0.011581236,0.346903801,-0.060841319,0.007293236
-0.057181701,-0.339987695,-0.938689828,-0.00881229,0.005867571,0.018996537,-0.042268284,0.013972335,-0.011581236,0.346903801,-0.060841319,0.007293236
-0.057181701,-0.339987695,-0.938689828,-0.00881229,0.005867571,0.018996537,-0.042268284,0.013972335,-0.011581236,0.346903801,-0.060841319,0.007293236
-0.057181701,-0.339987695,-0.938689828,-0.00881229,0.005867571,0.018996537,-0.042268284,0.013972335,-0.011581236,0.346903801,-0.060841319,0.007293236
-0.056750789,-0.339355856,-0.938944578,-0.003231239,0.006578535,0.014917791,-0.033678457,0.018936431,-0.014027082,0.346232024,-0.060367605,0.006948226
-0.056750789,-0.339355856,-0.938944578,-0.003231239,0.006578535,0.014917791,-0.033678457,0.018936431,-0.014027082,0.346232024,-0.060367605,0.006948226
-0.056750789,-0.339355856,-0.938944578,-0.003231239,0.006578535,0.014917791,-0.033678457,0.018936431,-0.014027082,0.346232024,-0.060367605,0.006948226
-0.056750789,-0.339355856,-0.938944578,-0.003231239,0.006578535,0.014917791,-0.033678457,0.018936431,-0.014027082,0.346232024,-0.060367605,0.006948226
-0.056750789,-0.339355856,-0.938944578,-0.003231239,0.006578535,0.014917791,-0.033678457,0.018936431,-0.014027082,0.346232024,-0.060367605,0.006948226
-0.056750789,-0.339355856,-0.938944578,-0.003231239,0.006578535,0.014917791,-0.033678457,0.018936431,-0.014027082,0.346232024,-0.060367605,0.006948226
-0.056750789,-0.339355856,-0.938944578,-0.003231239,0.006578535,0.014917791,-0.033678457,0.018936431,-0.014027082,0.346232024,-0.060367605,0.006948226
-0.056750789,-0.339355856,-0.938944578,-0.003231239,0.006578535,0.014917791,-0.033678457,0.018936431,-0.014027082,0.346232024,-0.060367605,0.006948226
-0.05636628,-0.339039534,-0.939082026,0.007553682,0.005682379,0.014109194,-0.025179487,0.007952006,-0.02162098,0.345895789,-0.05995082,0.006534336
-0.05636628,-0.339039534,-0.939082026,0.007553682,0.005682379,0.014109194,-0.025179487,0.007952006,-0.02162098,0.345895789,-0.05995082,0.006534336
-0.05636628,-0.339039534,-0.939082026,0.007553682,0.005682379,0.014109194,-0.025179487,0.007952006,-0.02162098,0.345895789,-0.05995082,0.006534336
-0.05636628,-0.339039534,-0.939082026,0.007553682,0.005682379,0.014109194,-0.025179487,0.007952006,-0.02162098,0.345895789,-0.05995082,0.006534336
-0.056220554,-0.338698179,-0.939213932,0.016212266,0.00727883,0.009144664,-0.042802569,-0.023290444,-0.026452806,0.345532968,-0.059787817,0.005720341
-0.056220554,-0.338698179,-0.939213932,0.016212266,0.00727883,0.009144664,-0.042802569,-0.023290444,-0.026452806,0.345532968,-0.059787817,0.005720341
-0.056220554,-0.338698179,-0.939213932,0.016212266,0.00727883,0.009144664,-0.042802569,-0.023290444,-0.026452806,0.345532968,-0.059787817,0.005720341
-0.056220554,-0.338698179,-0.939213932,0.016212266,0.00727883,0.009144664,-0.042802569,-0.023290444,-0.026452806,0.345532968,-0.059787817,0.005720341
-0.056220554,-0.338698179,-0.939213932,0.016212266,0.00727883,0.009144664,-0.042802569,-0.023290444,-0.026452806,0.345532968,-0.059787817,0.005720341
-0.056220554,-0.338698179,-0.939213932,0.016212266,0.00727883,0.009144664,-0.042802569,-0.023290444,-0.026452806,0.345532968,-0.059787817,0.005720341
-0.056220554,-0.338698179,-0.939213932,0.016212266,0.00727883,0.009144664,-0.042802569,-0.023290444,-0.026452806,0.345532968,-0.059787817,0.005720341
-0.056220554,-0.338698179,-0.939213932,0.016212266,0.00727883,0.009144664,-0.042802569,-0.023290444,-0.026452806,0.345532968,-0.059787817,0.005720341
-0.056775399,-0.337479264,-0.939619243,0.005261999,-0.009366661,0.010801196,-0.088553689,-0.02474096,0.000575562,0.344237758,-0.060350459,0.005650656
-0.056775399,-0.337479264,-0.939619243,0.005261999,-0.009366661,0.010801196,-0.088553689,-0.02474096,0.000575562,0.344237758,-0.060350459,0.005650656
-0.056775399,-0.337479264,-0.939619243,0.005261999,-0.009366661,0.010801196,-0.088553689,-0.02474096,0.000575562,0.344237758,-0.060350459,0.005650656
-0.056775399,-0.337479264,-0.939619243,0.005261999,-0.009366661,0.010801196,-0.088553689,-0.02474096,0.000575562,0.344237758,-0.060350459,0.005650656
-0.056775399,-0.337479264,-0.939619243,0.005261999,-0.009366661,0.010801196,-0.088553689,-0.02474096,0.000575562,0.344237758,-0.060350459,0.005650656
-0.056775399,-0.337479264,-0.939619243,0.005261999,-0.009366661,0.010801196,-0.088553689,-0.02474096,0.000575562,0.344237758,-0.060350459,0.005650656
-0.056775399,-0.337479264,-0.939619243,0.005261999,-0.009366661,0.010801196,-0.088553689,-0.02474096,0.000575562,0.344237758,-0.060350459,0.005650656
-0.056775399,-0.337479264,-0.939619243,0.005261999,-0.009366661,0.010801196,-0.088553689,-0.02474096,0.000575562,0.344237758,-0.060350459,0.005650656
-0.057339724,-0.335594505,-0.940259814,0.00436148,-0.000555038,0.012738764,-0.113025345,-0.024901308,0.01542748,0.34223625,-0.060907425,0.005796111
-0.057339724,-0.335594505,-0.940259814,0.00436148,-0.000555038,0.012738764,-0.113025345,-0.024901308,0.01542748,0.34223625,-0.060907425,0.005796111
-0.057339724,-0.335594505,-0.940259814,0.00436148,-0.000555038,0.012738764,-0.113025345,-0.024901308,0.01542748,0.34223625,-0.060907425,0.005796111
-0.057339724,-0.335594505,-0.940259814,0.00436148,-0.000555038,0.012738764,-0.113025345,-0.024901308,0.01542748,0.34223625,-0.060907425,0.005796111
-0.057855394,-0.333553702,-0.940954149,-0.000173517,0.011289567,0.013784051,-0.106571615,-0.028627759,0.020690257,0.34007066,-0.061408575,0.006008448
-0.057855394,-0.333553702,-0.940954149,-0.000173517,0.011289567,0.013784051,-0.106571615,-0.028627759,0.020690257,0.34007066,-0.061408575,0.006008448
-0.057855394,-0.333553702,-0.940954149,-0.000173517,0.011289567,0.013784051,-0.106571615,-0.028627759,0.020690257,0.34007066,-0.061408575,0.006008448
-0.057855394,-0.333553702,-0.940954149,-0.000173517,0.011289567,0.013784051,-0.106571615,-0.028627759,0.020690257,0.34007066,-0.061408575,0.006008448
-0.057855394,-0.333553702,-0.940954149,-0.000173517,0.011289567,0.013784051,-0.106571615,-0.028627759,0.020690257,0.34007066,-0.061408575,0.006008448
-0.057855394,-0.333553702,-0.940954149,-0.000173517,0.011289567,0.013784051,-0.106571615,-0.028627759,0.020690257,0.34007066,-0.061408575,0.006008448
-0.058219537,-0.331650466,-0.941604197,-0.004020799,0.009599954,0.009719133,-0.099818476,-0.02324447,0.017698569,0.338052517,-0.061751548,0.006171455
-0.058219537,-0.331650466,-0.941604197,-0.004020799,0.009599954,0.009719133,-0.099818476,-0.02324447,0.017698569,0.338052517,-0.061751548,0.006171455
-0.058219537,-0.331650466,-0.941604197,-0.004020799,0.009599954,0.009719133,-0.099818476,-0.02324447,0.017698569,0.338052517,-0.061751548,0.006171455
-0.058219537,-0.331650466,-0.941604197,-0.004020799,0.009599954,0.009719133,-0.099818476,-0.02324447,0.017698569,0.338052517,-0.061751548,0.006171455
-0.058219537,-0.331650466,-0.941604197,-0.004020799,0.009599954,0.009719133,-0.099818476,-0.02324447,0.017698569,0.338052517,-0.061751548,0.006171455
-0.058219537,-0.331650466,-0.941604197,-0.004020799,0.009599954,0.009719133,-0.099818476,-0.02324447,0.017698569,0.338052517,-0.061751548,0.006171455
-0.058219537,-0.331650466,-0.941604197,-0.004020799,0.009599954,0.009719133,-0.099818476,-0.02324447,0.017698569,0.338052517,-0.061751548,0.006171455
-0.058391422,-0.330109328,-0.942134976,-0.00944889,-0.000318259,0.012981236,-0.106510751,-0.000932639,0.00480855,0.336419391,-0.061898593,0.006226817
-0.058391422,-0.330109328,-0.942134976,-0.00944889,-0.000318259,0.012981236,-0.106510751,-0.000932639,0.00480855,0.336419391,-0.061898593,0.006226817
-0.058391422,-0.330109328,-0.942134976,-0.00944889,-0.000318259,0.012981236,-0.106510751,-0.000932639,0.00480855,0.336419391,-0.061898593,0.006226817
-0.058391422,-0.330109328,-0.942134976,-0.00944889,-0.000318259,0.012981236,-0.106510751,-0.000932639,0.00480855,0.336419391,-0.061898593,0.006226817
-0.058194235,-0.32824257,-0.942799151,-0.00544991,0.001934856,0.016346276,-0.121323578,0.008722155,-0.008485151,0.334442462,-0.061646743,0.005972027
-0.058194235,-0.32824257,-0.942799151,-0.00544991,0.001934856,0.016346276,-0.121323578,0.008722155,-0.008485151,0.334442462,-0.061646743,0.005972027
-0.058194235,-0.32824257,-0.942799151,-0.00544991,0.001934856,0.016346276,-0.121323578,0.008722155,-0.008485151,0.334442462,-0.061646743,0.005972027
-0.058194235,-0.32824257,-0.942799151,-0.00544991,0.001934856,0.016346276,-0.121323578,0.008722155,-0.008485151,0.334442462,-0.061646743,0.005972027
-0.058194235,-0.32824257,-0.942799151,-0.00544991,0.001934856,0.016346276,-0.121323578,0.008722155,-0.008485151,0.334442462,-0.061646743,0.005972027
-0.058194235,-0.32824257,-0.942799151,-0.00544991,0.001934856,0.016346276,-0.121323578,0.008722155,-0.008485151,0.334442462,-0.061646743,0.005972027
-0.058194235,-0.32824257,-0.942799151,-0.00544991,0.001934856,0.016346276,-0.121323578,0.008722155,-0.008485151,0.334442462,-0.061646743,0.005972027
-0.058194235,-0.32824257,-0.942799151,-0.00544991,0.001934856,0.016346276,-0.121323578,0.008722155,-0.008485151,0.334442462,-0.061646743,0.005972027
-0.057777364,-0.325952798,-0.943618834,-0.000358365,0.001857609,0.014022648,-0.129533917,0.027829073,-0.003531458,0.332019387,-0.061153209,0.005671403
-0.057777364,-0.325952798,-0.943618834,-0.000358365,0.001857609,0.014022648,-0.129533917,0.027829073,-0.003531458,0.332019387,-0.061153209,0.005671403
-0.057777364,-0.325952798,-0.943618834,-0.000358365,0.001857609,0.014022648,-0.129533917,0.027829073,-0.003531458,0.332019387,-0.061153209,0.005671403
-0.057777364,-0.325952798,-0.943618834,-0.000358365,0.001857609,0.014022648,-0.129533917,0.027829073,-0.003531458,0.332019387,-0.061153209,0.005671403
-0.057777364,-0.325952798,-0.943618834,-0.000358365,0.001857609,0.014022648,-0.129533917,0.027829073,-0.003531458,0.332019387,-0.061153209,0.005671403
-0.057777364,-0.325952798,-0.943618834,-0.000358365,0.001857609,0.014022648,-0.129533917,0.027829073,-0.003531458,0.332019387,-0.061153209,0.005671403
-0.057777364,-0.325952798,-0.943618834,-0.000358365,0.001857609,0.014022648,-0.129533917,0.027829073,-0.003531458,0.332019387,-0.061153209,0.005671403
-0.057322811,-0.323454857,-0.944505692,0.00164374,0.003586262,0.015901327,-0.134119853,0.027142562,-0.009950103,0.329378347,-0.060616453,0.005336949
-0.057322811,-0.323454857,-0.944505692,0.00164374,0.003586262,0.015901327,-0.134119853,0.027142562,-0.009950103,0.329378347,-0.060616453,0.005336949
-0.057322811,-0.323454857,-0.944505692,0.00164374,0.003586262,0.015901327,-0.134119853,0.027142562,-0.009950103,0.329378347,-0.060616453,0.005336949
-0.057322811,-0.323454857,-0.944505692,0.00164374,0.003586262,0.015901327,-0.134119853,0.027142562,-0.009950103,0.329378347,-0.060616453,0.005336949
-0.057322811,-0.323454857,-0.944505692,0.00164374,0.003586262,0.015901327,-0.134119853,0.027142562,-0.009950103,0.329378347,-0.060616453,0.005336949
-0.057322811,-0.323454857,-0.944505692,0.00164374,0.003586262,0.015901327,-0.134119853,0.027142562,-0.009950103,0.329378347,-0.060616453,0.005336949
-0.057234604,-0.321233481,-0.945268869,0.0117484,0.023154438,0.0058918,-0.137922272,-0.066758133,-0.179350168,0.327031729,-0.06047466,0.004339954
-0.057234604,-0.321233481,-0.945268869,0.0117484,0.023154438,0.0058918,-0.137922272,-0.066758133,-0.179350168,0.327031729,-0.06047466,0.004339954
-0.057234604,-0.321233481,-0.945268869,0.0117484,0.023154438,0.0058918,-0.137922272,-0.066758133,-0.179350168,0.327031729,-0.06047466,0.004339954
-0.057234604,-0.321233481,-0.945268869,0.0117484,0.023154438,0.0058918,-0.137922272,-0.066758133,-0.179350168,0.327031729,-0.06047466,0.004339954
-0.057234604,-0.321233481,-0.945268869,0.0117484,0.023154438,0.0058918,-0.137922272,-0.066758133,-0.179350168,0.327031729,-0.06047466,0.004339954
-0.057234604,-0.321233481,-0.945268869,0.0117484,0.023154438,0.0058918,-0.137922272,-0.066758133,-0.179350168,0.327031729,-0.06047466,0.004339954
-0.057234604,-0.321233481,-0.945268869,0.0117484,0.023154438,0.0058918,-0.137922272,-0.066758133,-0.179350168,0.327031729,-0.06047466,0.004339954
-0.057234604,-0.321233481,-0.945268869,0.0117484,0.023154438,0.0058918,-0.137922272,-0.066758133,-0.179350168,0.327031729,-0.06047466,0.004339954
-0.05744493,-0.318715304,-0.946108162,-0.005222667,-0.027383178,0.022676528,-0.146108732,-0.002152271,0.011287061,0.324373787,-0.06064264,0.002759579
-0.05744493,-0.318715304,-0.946108162,-0.005222667,-0.027383178,0.022676528,-0.146108732,-0.002152271,0.011287061,0.324373787,-0.06064264,0.002759579
-0.05744493,-0.318715304,-0.946108162,-0.005222667,-0.027383178,0.022676528,-0.146108732,-0.002152271,0.011287061,0.324373787,-0.06064264,0.002759579
-0.05744493,-0.318715304,-0.946108162,-0.005222667,-0.027383178,0.022676528,-0.146108732,-0.002152271,0.011287061,0.324373787,-0.06064264,0.002759579
-0.057691138,-0.316561908,-0.946815848,-0.001802631,0.016743332,0.01561749,-0.108572006,-0.005993348,0.055636421,0.322102783,-0.0608565,0.002647176
-0.057691138,-0.316561908,-0.946815848,-0.001802631,0.016743332,0.01561749,-0.108572006,-0.005993348,0.055636421,0.322102783,-0.0608565,0.002647176
-0.057691138,-0.316561908,-0.946815848,-0.001802631,0.016743332,0.01561749,-0.108572006,-0.005993348,0.055636421,0.322102783,-0.0608565,0.002647176
-0.057691138,-0.316561908,-0.946815848,-0.001802631,0.016743332,0.01561749,-0.108572006,-0.005993348,0.055636421,0.322102783,-0.0608565,0.002647176
-0.057691138,-0.316561908,-0.946815848,-0.001802631,0.016743332,0.01561749,-0.108572006,-0.005993348,0.055636421,0.322102783,-0.0608565,0.002647176
-0.058129475,-0.31534484,-0.947195113,0.005944666,0.030510396,0.012639821,-0.02955655,-0.012778332,0.022690453,0.320820009,-0.061293243,0.003322756
-0.058129475,-0.31534484,-0.947195113,0.005944666,0.030510396,0.012639821,-0.02955655,-0.012778332,0.022690453,0.320820009,-0.061293243,0.003322756
-0.058129475,-0.31534484,-0.947195113,0.005944666,0.030510396,0.012639821,-0.02955655,-0.012778332,0.022690453,0.320820009,-0.061293243,0.003322756
-0.058129475,-0.31534484,-0.947195113,0.005944666,0.030510396,0.012639821,-0.02955655,-0.012778332,0.022690453,0.320820009,-0.061293243,0.003322756
-0.058129475,-0.31534484,-0.947195113,0.005944666,0.030510396,0.012639821,-0.02955655,-0.012778332,0.022690453,0.320820009,-0.061293243,0.003322756
-0.058129475,-0.31534484,-0.947195113,0.005944666,0.030510396,0.012639821,-0.02955655,-0.012778332,0.022690453,0.320820009,-0.061293243,0.003322756
-0.058129475,-0.31534484,-0.947195113,0.005944666,0.030510396,0.012639821,-0.02955655,-0.012778332,0.022690453,0.320820009,-0.061293243,0.003322756
-0.058129475,-0.31534484,-0.947195113,0.005944666,0.030510396,0.012639821,-0.02955655,-0.012778332,0.022690453,0.320820009,-0.061293243,0.003322756
-0.058129475,-0.31534484,-0.947195113,0.005944666,0.030510396,0.012639821,-0.02955655,-0.012778332,0.022690453,0.320820009,-0.061293243,0.003322756
-0.058334891,-0.315174311,-0.94723922,-0.003173035,0.028417289,0.009815276,0.008415332,-0.026333507,0.006784456,0.320640332,-0.061506438,0.00353915
-0.058334891,-0.315174311,-0.94723922,-0.003173035,0.028417289,0.009815276,0.008415332,-0.026333507,0.006784456,0.320640332,-0.061506438,0.00353915
-0.058334891,-0.315174311,-0.94723922,-0.003173035,0.028417289,0.009815276,0.008415332,-0.026333507,0.006784456,0.320640332,-0.061506438,0.00353915
-0.058705822,-0.315894723,-0.946976304,-0.001077861,0.001717657,0.016128898,0.008493003,-0.012091562,-0.019156171,0.321399531,-0.061913684,0.003353054
-0.058705822,-0.315894723,-0.946976304,-0.001077861,0.001717657,0.016128898,0.008493003,-0.012091562,-0.019156171,0.321399531,-0.061913684,0.003353054
-0.058705822,-0.315894723,-0.946976304,-0.001077861,0.001717657,0.016128898,0.008493003,-0.012091562,-0.019156171,0.321399531,-0.061913684,0.003353054
-0.058705822,-0.315894723,-0.946976304,-0.001077861,0.001717657,0.016128898,0.008493003,-0.012091562,-0.019156171,0.321399531,-0.061913684,0.003353054
-0.058705822,-0.315894723,-0.946976304,-0.001077861,0.001717657,0.016128898,0.008493003,-0.012091562,-0.019156171,0.321399531,-0.061913684,0.003353054
-0.058705822,-0.315894723,-0.946976304,-0.001077861,0.001717657,0.016128898,0.008493003,-0.012091562,-0.019156171,0.321399531,-0.061913684,0.003353054
-0.058705822,-0.315894723,-0.946976304,-0.001077861,0.001717657,0.016128898,0.008493003,-0.012091562,-0.019156171,0.321399531,-0.061913684,0.003353054
-0.058705822,-0.315894723,-0.946976304,-0.001077861,0.001717657,0.016128898,0.008493003,-0.012091562,-0.019156171,0.321399531,-0.061913684,0.003353054
-0.058632575,-0.31524235,-0.947198212,0.000740979,-0.001894951,0.015770972,-0.01833744,-0.007390575,0.00584894,0.320712008,-0.061822179,0.003125316
-0.058632575,-0.31524235,-0.947198212,0.000740979,-0.001894951,0.015770972,-0.01833744,-0.007390575,0.00584894,0.320712008,-0.061822179,0.003125316
-0.058632575,-0.31524235,-0.947198212,0.000740979,-0.001894951,0.015770972,-0.01833744,-0.007390575,0.00584894,0.320712008,-0.061822179,0.003125316
-0.058632575,-0.31524235,-0.947198212,0.000740979,-0.001894951,0.015770972,-0.01833744,-0.007390575,0.00584894,0.320712008,-0.061822179,0.003125316
-0.058632575,-0.31524235,-0.947198212,0.000740979,-0.001894951,0.015770972,-0.01833744,-0.007390575,0.00584894,0.320712008,-0.061822179,0.003125316
-0.058632575,-0.31524235,-0.947198212,0.000740979,-0.001894951,0.015770972,-0.01833744,-0.007390575,0.00584894,0.320712008,-0.061822179,0.003125316
-0.058834083,-0.314511776,-0.947428584,0.000225343,0.003584892,0.013849795,-0.021981254,-0.008081011,0.016220834,0.319942293,-0.062019065,0.003390793
-0.058834083,-0.314511776,-0.947428584,0.000225343,0.003584892,0.013849795,-0.021981254,-0.008081011,0.016220834,0.319942293,-0.062019065,0.003390793
-0.058834083,-0.314511776,-0.947428584,0.000225343,0.003584892,0.013849795,-0.021981254,-0.008081011,0.016220834,0.319942293,-0.062019065,0.003390793
-0.058834083,-0.314511776,-0.947428584,0.000225343,0.003584892,0.013849795,-0.021981254,-0.008081011,0.016220834,0.319942293,-0.062019065,0.003390793
-0.058834083,-0.314511776,-0.947428584,0.000225343,0.003584892,0.013849795,-0.021981254,-0.008081011,0.016220834,0.319942293,-0.062019065,0.003390793
-0.058834083,-0.314511776,-0.947428584,0.000225343,0.003584892,0.013849795,-0.021981254,-0.008081011,0.016220834,0.319942293,-0.062019065,0.003390793
-0.059170559,-0.313716352,-0.947671294,-0.000185862,0.013882577,0.015099645,-0.001274126,-0.014419783,7.00E-05,0.319104441,-0.062356903,0.003585644
-0.059170559,-0.313716352,-0.947671294,-0.000185862,0.013882577,0.015099645,-0.001274126,-0.014419783,7.00E-05,0.319104441,-0.062356903,0.003585644
-0.059170559,-0.313716352,-0.947671294,-0.000185862,0.013882577,0.015099645,-0.001274126,-0.014419783,7.00E-05,0.319104441,-0.062356903,0.003585644
-0.059170559,-0.313716352,-0.947671294,-0.000185862,0.013882577,0.015099645,-0.001274126,-0.014419783,7.00E-05,0.319104441,-0.062356903,0.003585644
-0.059170559,-0.313716352,-0.947671294,-0.000185862,0.013882577,0.015099645,-0.001274126,-0.014419783,7.00E-05,0.319104441,-0.062356903,0.003585644
-0.059170559,-0.313716352,-0.947671294,-0.000185862,0.013882577,0.015099645,-0.001274126,-0.014419783,7.00E-05,0.319104441,-0.062356903,0.003585644
-0.059170559,-0.313716352,-0.947671294,-0.000185862,0.013882577,0.015099645,-0.001274126,-0.014419783,7.00E-05,0.319104441,-0.062356903,0.003585644
-0.059170559,-0.313716352,-0.947671294,-0.000185862,0.013882577,0.015099645,-0.001274126,-0.014419783,7.00E-05,0.319104441,-0.062356903,0.003585644
-0.059170559,-0.313716352,-0.947671294,-0.000185862,0.013882577,0.015099645,-0.001274126,-0.014419783,7.00E-05,0.319104441,-0.062356903,0.003585644
-0.059707887,-0.314714462,-0.947306573,-0.001967866,0.012744486,0.011698425,0.0425249,-0.009076792,0.002267735,0.320155824,-0.062945839,0.003440681
-0.059707887,-0.314714462,-0.947306573,-0.001967866,0.012744486,0.011698425,0.0425249,-0.009076792,0.002267735,0.320155824,-0.062945839,0.003440681
-0.059707887,-0.314714462,-0.947306573,-0.001967866,0.012744486,0.011698425,0.0425249,-0.009076792,0.002267735,0.320155824,-0.062945839,0.003440681
-0.059707887,-0.314714462,-0.947306573,-0.001967866,0.012744486,0.011698425,0.0425249,-0.009076792,0.002267735,0.320155824,-0.062945839,0.003440681
-0.059707887,-0.314714462,-0.947306573,-0.001967866,0.012744486,0.011698425,0.0425249,-0.009076792,0.002267735,0.320155824,-0.062945839,0.003440681
-0.059707887,-0.314714462,-0.947306573,-0.001967866,0.012744486,0.011698425,0.0425249,-0.009076792,0.002267735,0.320155824,-0.062945839,0.003440681
-0.059707887,-0.314714462,-0.947306573,-0.001967866,0.012744486,0.011698425,0.0425249,-0.009076792,0.002267735,0.320155824,-0.062945839,0.003440681
-0.059707887,-0.314714462,-0.947306573,-0.001967866,0.012744486,0.011698425,0.0425249,-0.009076792,0.002267735,0.320155824,-0.062945839,0.003440681
-0.059826385,-0.315578312,-0.947011709,-0.001239017,0.010556579,0.012700498,0.044598464,-0.012579285,0.002833762,0.321066044,-0.06309002,0.003530279
-0.059826385,-0.315578312,-0.947011709,-0.001239017,0.010556579,0.012700498,0.044598464,-0.012579285,0.002833762,0.321066044,-0.06309002,0.003530279
-0.059826385,-0.315578312,-0.947011709,-0.001239017,0.010556579,0.012700498,0.044598464,-0.012579285,0.002833762,0.321066044,-0.06309002,0.003530279
-0.059826385,-0.315578312,-0.947011709,-0.001239017,0.010556579,0.012700498,0.044598464,-0.012579285,0.002833762,0.321066044,-0.06309002,0.003530279
-0.059826385,-0.315578312,-0.947011709,-0.001239017,0.010556579,0.012700498,0.044598464,-0.012579285,0.002833762,0.321066044,-0.06309002,0.003530279
-0.059826385,-0.315578312,-0.947011709,-0.001239017,0.010556579,0.012700498,0.044598464,-0.012579285,0.002833762,0.321066044,-0.06309002,0.003530279
-0.059826385,-0.315578312,-0.947011709,-0.001239017,0.010556579,0.012700498,0.044598464,-0.012579285,0.002833762,0.321066044,-0.06309002,0.003530279
-0.06015851,-0.316130221,-0.94680655,-0.000357576,0.002105802,0.016905189,0.029704137,-0.012548936,-0.001290675,0.321647735,-0.063453034,0.003595934
-0.06015851,-0.316130221,-0.94680655,-0.000357576,0.002105802,0.016905189,0.029704137,-0.012548936,-0.001290675,0.321647735,-0.063453034,0.003595934
-0.06015851,-0.316130221,-0.94680655,-0.000357576,0.002105802,0.016905189,0.029704137,-0.012548936,-0.001290675,0.321647735,-0.063453034,0.003595934
-0.06015851,-0.316130221,-0.94680655,-0.000357576,0.002105802,0.016905189,0.029704137,-0.012548936,-0.001290675,0.321647735,-0.063453034,0.003595934
-0.06015851,-0.316130221,-0.94680655,-0.000357576,0.002105802,0.016905189,0.029704137,-0.012548936,-0.001290675,0.321647735,-0.063453034,0.003595934
-0.06015851,-0.316130221,-0.94680655,-0.000357576,0.002105802,0.016905189,0.029704137,-0.012548936,-0.001290675,0.321647735,-0.063453034,0.003595934
-0.06015851,-0.316130221,-0.94680655,-0.000357576,0.002105802,0.016905189,0.029704137,-0.012548936,-0.001290675,0.321647735,-0.063453034,0.003595934
-0.06015851,-0.316130221,-0.94680655,-0.000357576,0.002105802,0.016905189,0.029704137,-0.012548936,-0.001290675,0.321647735,-0.063453034,0.003595934
-0.060525551,-0.316876739,-0.946533561,-0.000509322,0.031813562,0.015152097,0.070569597,-0.015165395,-0.008641585,0.32243471,-0.063857491,0.003576657
-0.060525551,-0.316876739,-0.946533561,-0.000509322,0.031813562,0.015152097,0.070569597,-0.015165395,-0.008641585,0.32243471,-0.063857491,0.003576657
-0.060525551,-0.316876739,-0.946533561,-0.000509322,0.031813562,0.015152097,0.070569597,-0.015165395,-0.008641585,0.32243471,-0.063857491,0.003576657
-0.060580563,-0.318177164,-0.946093678,-0.005596504,-0.002637297,0.009997249,0.105301879,0.006719155,-0.008012813,0.323806101,-0.063945008,0.003572892
-0.060580563,-0.318177164,-0.946093678,-0.005596504,-0.002637297,0.009997249,0.105301879,0.006719155,-0.008012813,0.323806101,-0.063945008,0.003572892
-0.060580563,-0.318177164,-0.946093678,-0.005596504,-0.002637297,0.009997249,0.105301879,0.006719155,-0.008012813,0.323806101,-0.063945008,0.003572892
-0.060580563,-0.318177164,-0.946093678,-0.005596504,-0.002637297,0.009997249,0.105301879,0.006719155,-0.008012813,0.323806101,-0.063945008,0.003572892
-0.060580563,-0.318177164,-0.946093678,-0.005596504,-0.002637297,0.009997249,0.105301879,0.006719155,-0.008012813,0.323806101,-0.063945008,0.003572892
-0.060580563,-0.318177164,-0.946093678,-0.005596504,-0.002637297,0.009997249,0.105301879,0.006719155,-0.008012813,0.323806101,-0.063945008,0.003572892
-0.060580563,-0.318177164,-0.946093678,-0.005596504,-0.002637297,0.009997249,0.105301879,0.006719155,-0.008012813,0.323806101,-0.063945008,0.003572892
-0.060580563,-0.318177164,-0.946093678,-0.005596504,-0.002637297,0.009997249,0.105301879,0.006719155,-0.008012813,0.323806101,-0.063945008,0.003572892
-0.060698695,-0.320637256,-0.94525522,0.010161888,0.049947947,0.011890054,0.164262056,-0.026004583,0.001295148,0.326402186,-0.064126038,0.003659092
-0.060698695,-0.320637256,-0.94525522,0.010161888,0.049947947,0.011890054,0.164262056,-0.026004583,0.001295148,0.326402186,-0.064126038,0.003659092
-0.060698695,-0.320637256,-0.94525522,0.010161888,0.049947947,0.011890054,0.164262056,-0.026004583,0.001295148,0.326402186,-0.064126038,0.003659092
-0.063434355,-0.319378257,-0.945501804,0.087513022,0.254148483,-0.056756794,-0.143931761,-0.02578998,0.117613934,0.325073309,-0.066990284,0.005168359
-0.063434355,-0.319378257,-0.945501804,0.087513022,0.254148483,-0.056756794,-0.143931761,-0.02578998,0.117613934,0.325073309,-0.066990284,0.005168359
-0.063434355,-0.319378257,-0.945501804,0.087513022,0.254148483,-0.056756794,-0.143931761,-0.02578998,0.117613934,0.325073309,-0.066990284,0.005168359
-0.063434355,-0.319378257,-0.945501804,0.087513022,0.254148483,-0.056756794,-0.143931761,-0.02578998,0.117613934,0.325073309,-0.066990284,0.005168359
-0.066286437,-0.319687694,-0.945201516,-0.006924927,-0.034787685,-0.023060501,0.086894892,-0.071650662,0.082714111,0.325399856,-0.07001479,0.007448428
-0.066286437,-0.319687694,-0.945201516,-0.006924927,-0.034787685,-0.023060501,0.086894892,-0.071650662,0.082714111,0.325399856,-0.07001479,0.007448428
-0.066286437,-0.319687694,-0.945201516,-0.006924927,-0.034787685,-0.023060501,0.086894892,-0.071650662,0.082714111,0.325399856,-0.07001479,0.007448428
-0.066286437,-0.319687694,-0.945201516,-0.006924927,-0.034787685,-0.023060501,0.086894892,-0.071650662,0.082714111,0.325399856,-0.07001479,0.007448428
-0.066286437,-0.319687694,-0.945201516,-0.006924927,-0.034787685,-0.023060501,0.086894892,-0.071650662,0.082714111,0.325399856,-0.07001479,0.007448428
-0.066286437,-0.319687694,-0.945201516,-0.006924927,-0.034787685,-0.023060501,0.086894892,-0.071650662,0.082714111,0.325399856,-0.07001479,0.007448428
-0.066710286,-0.321418405,-0.944584548,-0.047669284,-0.077032834,-0.009395242,0.107646741,0.062503718,-0.039239656,0.327226986,-0.070506878,0.008060704
-0.066710286,-0.321418405,-0.944584548,-0.047669284,-0.077032834,-0.009395242,0.107646741,0.062503718,-0.039239656,0.327226986,-0.070506878,0.008060704
-0.066710286,-0.321418405,-0.944584548,-0.047669284,-0.077032834,-0.009395242,0.107646741,0.062503718,-0.039239656,0.327226986,-0.070506878,0.008060704
-0.066710286,-0.321418405,-0.944584548,-0.047669284,-0.077032834,-0.009395242,0.107646741,0.062503718,-0.039239656,0.327226986,-0.070506878,0.008060704
-0.066710286,-0.321418405,-0.944584548,-0.047669284,-0.077032834,-0.009395242,0.107646741,0.062503718,-0.039239656,0.327226986,-0.070506878,0.008060704
-0.063225783,-0.323761493,-0.944023848,-0.010351785,-0.003019124,0.006798208,-0.022540959,0.259396046,-0.211871356,0.329702414,-0.066874905,0.005825668
-0.063225783,-0.323761493,-0.944023848,-0.010351785,-0.003019124,0.006798208,-0.022540959,0.259396046,-0.211871356,0.329702414,-0.066874905,0.005825668
-0.063225783,-0.323761493,-0.944023848,-0.010351785,-0.003019124,0.006798208,-0.022540959,0.259396046,-0.211871356,0.329702414,-0.066874905,0.005825668
-0.063225783,-0.323761493,-0.944023848,-0.010351785,-0.003019124,0.006798208,-0.022540959,0.259396046,-0.211871356,0.329702414,-0.066874905,0.005825668
-0.063225783,-0.323761493,-0.944023848,-0.010351785,-0.003019124,0.006798208,-0.022540959,0.259396046,-0.211871356,0.329702414,-0.066874905,0.005825668
-0.05955188,-0.32252574,-0.944685519,0.040112481,0.057222784,0.044553995,-0.064935088,0.020309666,-0.03087653,0.328396612,-0.062955536,0.002866975
-0.05955188,-0.32252574,-0.944685519,0.040112481,0.057222784,0.044553995,-0.064935088,0.020309666,-0.03087653,0.328396612,-0.062955536,0.002866975
-0.05955188,-0.32252574,-0.944685519,0.040112481,0.057222784,0.044553995,-0.064935088,0.020309666,-0.03087653,0.328396612,-0.062955536,0.002866975
-0.060562525,-0.321872979,-0.944843888,0.008423556,0.006017715,0.004352868,0.002903894,-0.025513303,-0.004979366,0.327707078,-0.064010349,0.002744345
-0.060562525,-0.321872979,-0.944843888,0.008423556,0.006017715,0.004352868,0.002903894,-0.025513303,-0.004979366,0.327707078,-0.064010349,0.002744345
-0.060238007,-0.322682768,-0.944588363,-0.000659492,0.039923936,-0.000327706,0.070902891,-0.00767523,0.009615182,0.328562497,-0.063685461,0.002584569
-0.060238007,-0.322682768,-0.944588363,-0.000659492,0.039923936,-0.000327706,0.070902891,-0.00767523,0.009615182,0.328562497,-0.063685461,0.002584569
-0.060238007,-0.322682768,-0.944588363,-0.000659492,0.039923936,-0.000327706,0.070902891,-0.00767523,0.009615182,0.328562497,-0.063685461,0.002584569
-0.060238007,-0.322682768,-0.944588363,-0.000659492,0.039923936,-0.000327706,0.070902891,-0.00767523,0.009615182,0.328562497,-0.063685461,0.002584569
-0.060238007,-0.322682768,-0.944588363,-0.000659492,0.039923936,-0.000327706,0.070902891,-0.00767523,0.009615182,0.328562497,-0.063685461,0.002584569
-0.060238007,-0.322682768,-0.944588363,-0.000659492,0.039923936,-0.000327706,0.070902891,-0.00767523,0.009615182,0.328562497,-0.063685461,0.002584569
-0.061421543,-0.32413125,-0.944016099,0.019567005,0.011602432,0.020981073,0.087424874,-0.050865307,0.021243874,0.330093242,-0.064972507,0.003233761