gravityX,gravityY,gravityZ,accelX,accelY,accelZ,rotRateX,rotRatY,rotRateZ,attPitch,attRoll,attYaw
-0.92281884,-0.326654524,-0.204210252,-0.004915357,0.05741322,-0.022535563,0.025559697,0.105224103,0.10307157,0.332761745,-1.353016257,0.268051595
-0.92281884,-0.326654524,-0.204210252,-0.004915357,0.05741322,-0.022535563,0.025559697,0.105224103,0.10307157,0.332761745,-1.353016257,0.268051595
-0.92281884,-0.326654524,-0.204210252,-0.004915357,0.05741322,-0.022535563,0.025559697,0.105224103,0.10307157,0.332761745,-1.353016257,0.268051595
-0.923707902,-0.322155356,-0.207314953,-7.47E-05,0.021816552,-0.010549963,-0.079312034,0.080481246,0.176364794,0.328005353,-1.350017069,0.269947641
-0.923707902,-0.322155356,-0.207314953,-7.47E-05,0.021816552,-0.010549963,-0.079312034,0.080481246,0.176364794,0.328005353,-1.350017069,0.269947641
-0.923707902,-0.322155356,-0.207314953,-7.47E-05,0.021816552,-0.010549963,-0.079312034,0.080481246,0.176364794,0.328005353,-1.350017069,0.269947641
-0.923707902,-0.322155356,-0.207314953,-7.47E-05,0.021816552,-0.010549963,-0.079312034,0.080481246,0.176364794,0.328005353,-1.350017069,0.269947641
-0.923707902,-0.322155356,-0.207314953,-7.47E-05,0.021816552,-0.010549963,-0.079312034,0.080481246,0.176364794,0.328005353,-1.350017069,0.269947641
-0.923707902,-0.322155356,-0.207314953,-7.47E-05,0.021816552,-0.010549963,-0.079312034,0.080481246,0.176364794,0.328005353,-1.350017069,0.269947641
-0.923707902,-0.322155356,-0.207314953,-7.47E-05,0.021816552,-0.010549963,-0.079312034,0.080481246,0.176364794,0.328005353,-1.350017069,0.269947641
-0.923707902,-0.322155356,-0.207314953,-7.47E-05,0.021816552,-0.010549963,-0.079312034,0.080481246,0.176364794,0.328005353,-1.350017069,0.269947641
-0.923707902,-0.322155356,-0.207314953,-7.47E-05,0.021816552,-0.010549963,-0.079312034,0.080481246,0.176364794,0.328005353,-1.350017069,0.269947641
-0.923707902,-0.322155356,-0.207314953,-7.47E-05,0.021816552,-0.010549963,-0.079312034,0.080481246,0.176364794,0.328005353,-1.350017069,0.269947641
-0.923707902,-0.322155356,-0.207314953,-7.47E-05,0.021816552,-0.010549963,-0.079312034,0.080481246,0.176364794,0.328005353,-1.350017069,0.269947641
-0.923707902,-0.322155356,-0.207314953,-7.47E-05,0.021816552,-0.010549963,-0.079312034,0.080481246,0.176364794,0.328005353,-1.350017069,0.269947641
-0.926264882,-0.310916722,-0.2129886,-0.008183479,-0.020153284,-0.023736298,-0.435875595,0.05556282,0.300783157,0.316157392,-1.34478158,0.260348811
-0.926264882,-0.310916722,-0.2129886,-0.008183479,-0.020153284,-0.023736298,-0.435875595,0.05556282,0.300783157,0.316157392,-1.34478158,0.260348811
-0.926264882,-0.310916722,-0.2129886,-0.008183479,-0.020153284,-0.023736298,-0.435875595,0.05556282,0.300783157,0.316157392,-1.34478158,0.260348811
-0.926264882,-0.310916722,-0.2129886,-0.008183479,-0.020153284,-0.023736298,-0.435875595,0.05556282,0.300783157,0.316157392,-1.34478158,0.260348811
-0.926264882,-0.310916722,-0.2129886,-0.008183479,-0.020153284,-0.023736298,-0.435875595,0.05556282,0.300783157,0.316157392,-1.34478158,0.260348811
-0.926264882,-0.310916722,-0.2129886,-0.008183479,-0.020153284,-0.023736298,-0.435875595,0.05556282,0.300783157,0.316157392,-1.34478158,0.260348811
-0.926264882,-0.310916722,-0.2129886,-0.008183479,-0.020153284,-0.023736298,-0.435875595,0.05556282,0.300783157,0.316157392,-1.34478158,0.260348811
-0.926264882,-0.310916722,-0.2129886,-0.008183479,-0.020153284,-0.023736298,-0.435875595,0.05556282,0.300783157,0.316157392,-1.34478158,0.260348811
-0.926264882,-0.310916722,-0.2129886,-0.008183479,-0.020153284,-0.023736298,-0.435875595,0.05556282,0.300783157,0.316157392,-1.34478158,0.260348811
-0.926264882,-0.310916722,-0.2129886,-0.008183479,-0.020153284,-0.023736298,-0.435875595,0.05556282,0.300783157,0.316157392,-1.34478158,0.260348811
-0.926264882,-0.310916722,-0.2129886,-0.008183479,-0.020153284,-0.023736298,-0.435875595,0.05556282,0.300783157,0.316157392,-1.34478158,0.260348811
-0.926264882,-0.310916722,-0.2129886,-0.008183479,-0.020153284,-0.023736298,-0.435875595,0.05556282,0.300783157,0.316157392,-1.34478158,0.260348811
-0.926264882,-0.310916722,-0.2129886,-0.008183479,-0.020153284,-0.023736298,-0.435875595,0.05556282,0.300783157,0.316157392,-1.34478158,0.260348811
-0.926264882,-0.310916722,-0.2129886,-0.008183479,-0.020153284,-0.023736298,-0.435875595,0.05556282,0.300783157,0.316157392,-1.34478158,0.260348811
-0.926264882,-0.310916722,-0.2129886,-0.008183479,-0.020153284,-0.023736298,-0.435875595,0.05556282,0.300783157,0.316157392,-1.34478158,0.260348811
-0.926264882,-0.310916722,-0.2129886,-0.008183479,-0.020153284,-0.023736298,-0.435875595,0.05556282,0.300783157,0.316157392,-1.34478158,0.260348811
-0.926264882,-0.310916722,-0.2129886,-0.008183479,-0.020153284,-0.023736298,-0.435875595,0.05556282,0.300783157,0.316157392,-1.34478158,0.260348811
-0.926264882,-0.310916722,-0.2129886,-0.008183479,-0.020153284,-0.023736298,-0.435875595,0.05556282,0.300783157,0.316157392,-1.34478158,0.260348811
-0.926264882,-0.310916722,-0.2129886,-0.008183479,-0.020153284,-0.023736298,-0.435875595,0.05556282,0.300783157,0.316157392,-1.34478158,0.260348811
-0.926264882,-0.310916722,-0.2129886,-0.008183479,-0.020153284,-0.023736298,-0.435875595,0.05556282,0.300783157,0.316157392,-1.34478158,0.260348811
-0.926264882,-0.310916722,-0.2129886,-0.008183479,-0.020153284,-0.023736298,-0.435875595,0.05556282,0.300783157,0.316157392,-1.34478158,0.260348811
-0.926264882,-0.310916722,-0.2129886,-0.008183479,-0.020153284,-0.023736298,-0.435875595,0.05556282,0.300783157,0.316157392,-1.34478158,0.260348811
-0.926264882,-0.310916722,-0.2129886,-0.008183479,-0.020153284,-0.023736298,-0.435875595,0.05556282,0.300783157,0.316157392,-1.34478158,0.260348811
-0.926264882,-0.310916722,-0.2129886,-0.008183479,-0.020153284,-0.023736298,-0.435875595,0.05556282,0.300783157,0.316157392,-1.34478158,0.260348811
-0.929518938,-0.296238959,-0.219628885,-0.035065591,0.003605843,0.012124658,-0.165653318,0.093948804,0.278554022,0.300752446,-1.338769521,0.249621509
-0.929518938,-0.296238959,-0.219628885,-0.035065591,0.003605843,0.012124658,-0.165653318,0.093948804,0.278554022,0.300752446,-1.338769521,0.249621509
-0.929518938,-0.296238959,-0.219628885,-0.035065591,0.003605843,0.012124658,-0.165653318,0.093948804,0.278554022,0.300752446,-1.338769521,0.249621509
-0.929518938,-0.296238959,-0.219628885,-0.035065591,0.003605843,0.012124658,-0.165653318,0.093948804,0.278554022,0.300752446,-1.338769521,0.249621509
-0.929518938,-0.296238959,-0.219628885,-0.035065591,0.003605843,0.012124658,-0.165653318,0.093948804,0.278554022,0.300752446,-1.338769521,0.249621509
-0.929518938,-0.296238959,-0.219628885,-0.035065591,0.003605843,0.012124658,-0.165653318,0.093948804,0.278554022,0.300752446,-1.338769521,0.249621509
-0.929518938,-0.296238959,-0.219628885,-0.035065591,0.003605843,0.012124658,-0.165653318,0.093948804,0.278554022,0.300752446,-1.338769521,0.249621509
-0.929518938,-0.296238959,-0.219628885,-0.035065591,0.003605843,0.012124658,-0.165653318,0.093948804,0.278554022,0.300752446,-1.338769521,0.249621509
-0.929518938,-0.296238959,-0.219628885,-0.035065591,0.003605843,0.012124658,-0.165653318,0.093948804,0.278554022,0.300752446,-1.338769521,0.249621509
-0.929518938,-0.296238959,-0.219628885,-0.035065591,0.003605843,0.012124658,-0.165653318,0.093948804,0.278554022,0.300752446,-1.338769521,0.249621509
-0.929518938,-0.296238959,-0.219628885,-0.035065591,0.003605843,0.012124658,-0.165653318,0.093948804,0.278554022,0.300752446,-1.338769521,0.249621509
-0.929518938,-0.296238959,-0.219628885,-0.035065591,0.003605843,0.012124658,-0.165653318,0.093948804,0.278554022,0.300752446,-1.338769521,0.249621509
-0.929518938,-0.296238959,-0.219628885,-0.035065591,0.003605843,0.012124658,-0.165653318,0.093948804,0.278554022,0.300752446,-1.338769521,0.249621509
-0.929518938,-0.296238959,-0.219628885,-0.035065591,0.003605843,0.012124658,-0.165653318,0.093948804,0.278554022,0.300752446,-1.338769521,0.249621509
-0.929518938,-0.296238959,-0.219628885,-0.035065591,0.003605843,0.012124658,-0.165653318,0.093948804,0.278554022,0.300752446,-1.338769521,0.249621509
-0.921733558,-0.311582476,-0.230918467,-0.039158046,0.006116807,-0.001763046,-0.158015937,0.131455779,0.123917691,0.31685796,-1.325322417,0.245613067
-0.921733558,-0.311582476,-0.230918467,-0.039158046,0.006116807,-0.001763046,-0.158015937,0.131455779,0.123917691,0.31685796,-1.325322417,0.245613067
-0.921733558,-0.311582476,-0.230918467,-0.039158046,0.006116807,-0.001763046,-0.158015937,0.131455779,0.123917691,0.31685796,-1.325322417,0.245613067
-0.921733558,-0.311582476,-0.230918467,-0.039158046,0.006116807,-0.001763046,-0.158015937,0.131455779,0.123917691,0.31685796,-1.325322417,0.245613067
-0.921733558,-0.311582476,-0.230918467,-0.039158046,0.006116807,-0.001763046,-0.158015937,0.131455779,0.123917691,0.31685796,-1.325322417,0.245613067
-0.921733558,-0.311582476,-0.230918467,-0.039158046,0.006116807,-0.001763046,-0.158015937,0.131455779,0.123917691,0.31685796,-1.325322417,0.245613067
-0.921733558,-0.311582476,-0.230918467,-0.039158046,0.006116807,-0.001763046,-0.158015937,0.131455779,0.123917691,0.31685796,-1.325322417,0.245613067
-0.921733558,-0.311582476,-0.230918467,-0.039158046,0.006116807,-0.001763046,-0.158015937,0.131455779,0.123917691,0.31685796,-1.325322417,0.245613067
-0.921733558,-0.311582476,-0.230918467,-0.039158046,0.006116807,-0.001763046,-0.158015937,0.131455779,0.123917691,0.31685796,-1.325322417,0.245613067
-0.921733558,-0.311582476,-0.230918467,-0.039158046,0.006116807,-0.001763046,-0.158015937,0.131455779,0.123917691,0.31685796,-1.325322417,0.245613067
-0.921733558,-0.311582476,-0.230918467,-0.039158046,0.006116807,-0.001763046,-0.158015937,0.131455779,0.123917691,0.31685796,-1.325322417,0.245613067
-0.921733558,-0.311582476,-0.230918467,-0.039158046,0.006116807,-0.001763046,-0.158015937,0.131455779,0.123917691,0.31685796,-1.325322417,0.245613067
-0.927288532,-0.298592925,-0.225783646,-0.023181558,-0.01622647,-0.017426252,-0.29759708,0.112220339,0.221306831,0.303217981,-1.331955912,0.240446777
-0.927288532,-0.298592925,-0.225783646,-0.023181558,-0.01622647,-0.017426252,-0.29759708,0.112220339,0.221306831,0.303217981,-1.331955912,0.240446777
-0.927288532,-0.298592925,-0.225783646,-0.023181558,-0.01622647,-0.017426252,-0.29759708,0.112220339,0.221306831,0.303217981,-1.331955912,0.240446777
-0.927288532,-0.298592925,-0.225783646,-0.023181558,-0.01622647,-0.017426252,-0.29759708,0.112220339,0.221306831,0.303217981,-1.331955912,0.240446777
-0.927288532,-0.298592925,-0.225783646,-0.023181558,-0.01622647,-0.017426252,-0.29759708,0.112220339,0.221306831,0.303217981,-1.331955912,0.240446777
-0.927288532,-0.298592925,-0.225783646,-0.023181558,-0.01622647,-0.017426252,-0.29759708,0.112220339,0.221306831,0.303217981,-1.331955912,0.240446777
-0.927288532,-0.298592925,-0.225783646,-0.023181558,-0.01622647,-0.017426252,-0.29759708,0.112220339,0.221306831,0.303217981,-1.331955912,0.240446777
-0.927288532,-0.298592925,-0.225783646,-0.023181558,-0.01622647,-0.017426252,-0.29759708,0.112220339,0.221306831,0.303217981,-1.331955912,0.240446777
-0.927288532,-0.298592925,-0.225783646,-0.023181558,-0.01622647,-0.017426252,-0.29759708,0.112220339,0.221306831,0.303217981,-1.331955912,0.240446777
-0.927288532,-0.298592925,-0.225783646,-0.023181558,-0.01622647,-0.017426252,-0.29759708,0.112220339,0.221306831,0.303217981,-1.331955912,0.240446777
-0.927288532,-0.298592925,-0.225783646,-0.023181558,-0.01622647,-0.017426252,-0.29759708,0.112220339,0.221306831,0.303217981,-1.331955912,0.240446777
-0.927288532,-0.298592925,-0.225783646,-0.023181558,-0.01622647,-0.017426252,-0.29759708,0.112220339,0.221306831,0.303217981,-1.331955912,0.240446777
-0.962875366,-0.218894854,-0.15797478,-0.021270871,-0.052497983,-0.049071789,-0.57556057,-0.229088336,0.167129919,0.220681709,-1.408179431,0.256327268
-0.962875366,-0.218894854,-0.15797478,-0.021270871,-0.052497983,-0.049071789,-0.57556057,-0.229088336,0.167129919,0.220681709,-1.408179431,0.256327268
-0.962875366,-0.218894854,-0.15797478,-0.021270871,-0.052497983,-0.049071789,-0.57556057,-0.229088336,0.167129919,0.220681709,-1.408179431,0.256327268
-0.963617325,-0.213178203,-0.161234394,-0.028936505,-0.024782628,-0.019811213,-0.45990777,-0.045749195,0.087440848,0.214826782,-1.405010073,0.234116526
-0.963617325,-0.213178203,-0.161234394,-0.028936505,-0.024782628,-0.019811213,-0.45990777,-0.045749195,0.087440848,0.214826782,-1.405010073,0.234116526
-0.963617325,-0.213178203,-0.161234394,-0.028936505,-0.024782628,-0.019811213,-0.45990777,-0.045749195,0.087440848,0.214826782,-1.405010073,0.234116526
-0.963617325,-0.213178203,-0.161234394,-0.028936505,-0.024782628,-0.019811213,-0.45990777,-0.045749195,0.087440848,0.214826782,-1.405010073,0.234116526
-0.963617325,-0.213178203,-0.161234394,-0.028936505,-0.024782628,-0.019811213,-0.45990777,-0.045749195,0.087440848,0.214826782,-1.405010073,0.234116526
-0.963617325,-0.213178203,-0.161234394,-0.028936505,-0.024782628,-0.019811213,-0.45990777,-0.045749195,0.087440848,0.214826782,-1.405010073,0.234116526
-0.963617325,-0.213178203,-0.161234394,-0.028936505,-0.024782628,-0.019811213,-0.45990777,-0.045749195,0.087440848,0.214826782,-1.405010073,0.234116526
-0.963617325,-0.213178203,-0.161234394,-0.028936505,-0.024782628,-0.019811213,-0.45990777,-0.045749195,0.087440848,0.214826782,-1.405010073,0.234116526
-0.963617325,-0.213178203,-0.161234394,-0.028936505,-0.024782628,-0.019811213,-0.45990777,-0.045749195,0.087440848,0.214826782,-1.405010073,0.234116526
-0.962400854,-0.213975176,-0.16732952,0.010297716,0.002915531,-0.013959885,-0.226412758,0.069370016,-0.053972367,0.215642593,-1.398650428,0.220304906
-0.962400854,-0.213975176,-0.16732952,0.010297716,0.002915531,-0.013959885,-0.226412758,0.069370016,-0.053972367,0.215642593,-1.398650428,0.220304906
-0.962400854,-0.213975176,-0.16732952,0.010297716,0.002915531,-0.013959885,-0.226412758,0.069370016,-0.053972367,0.215642593,-1.398650428,0.220304906
-0.962400854,-0.213975176,-0.16732952,0.010297716,0.002915531,-0.013959885,-0.226412758,0.069370016,-0.053972367,0.215642593,-1.398650428,0.220304906
-0.962400854,-0.213975176,-0.16732952,0.010297716,0.002915531,-0.013959885,-0.226412758,0.069370016,-0.053972367,0.215642593,-1.398650428,0.220304906
-0.962400854,-0.213975176,-0.16732952,0.010297716,0.002915531,-0.013959885,-0.226412758,0.069370016,-0.053972367,0.215642593,-1.398650428,0.220304906
-0.962400854,-0.213975176,-0.16732952,0.010297716,0.002915531,-0.013959885,-0.226412758,0.069370016,-0.053972367,0.215642593,-1.398650428,0.220304906
-0.962400854,-0.213975176,-0.16732952,0.010297716,0.002915531,-0.013959885,-0.226412758,0.069370016,-0.053972367,0.215642593,-1.398650428,0.220304906
-0.962400854,-0.213975176,-0.16732952,0.010297716,0.002915531,-0.013959885,-0.226412758,0.069370016,-0.053972367,0.215642593,-1.398650428,0.220304906
-0.962400854,-0.213975176,-0.16732952,0.010297716,0.002915531,-0.013959885,-0.226412758,0.069370016,-0.053972367,0.215642593,-1.398650428,0.220304906
-0.962400854,-0.213975176,-0.16732952,0.010297716,0.002915531,-0.013959885,-0.226412758,0.069370016,-0.053972367,0.215642593,-1.398650428,0.220304906
-0.962400854,-0.213975176,-0.16732952,0.010297716,0.002915531,-0.013959885,-0.226412758,0.069370016,-0.053972367,0.215642593,-1.398650428,0.220304906
-0.962400854,-0.213975176,-0.16732952,0.010297716,0.002915531,-0.013959885,-0.226412758,0.069370016,-0.053972367,0.215642593,-1.398650428,0.220304906
-0.962400854,-0.213975176,-0.16732952,0.010297716,0.002915531,-0.013959885,-0.226412758,0.069370016,-0.053972367,0.215642593,-1.398650428,0.220304906
-0.962400854,-0.213975176,-0.16732952,0.010297716,0.002915531,-0.013959885,-0.226412758,0.069370016,-0.053972367,0.215642593,-1.398650428,0.220304906
-0.962400854,-0.213975176,-0.16732952,0.010297716,0.002915531,-0.013959885,-0.226412758,0.069370016,-0.053972367,0.215642593,-1.398650428,0.220304906
-0.962400854,-0.213975176,-0.16732952,0.010297716,0.002915531,-0.013959885,-0.226412758,0.069370016,-0.053972367,0.215642593,-1.398650428,0.220304906
-0.962400854,-0.213975176,-0.16732952,0.010297716,0.002915531,-0.013959885,-0.226412758,0.069370016,-0.053972367,0.215642593,-1.398650428,0.220304906
-0.960017622,-0.219312295,-0.173977435,-0.013920784,0.011060253,0.029339612,-0.071921133,0.183369115,-0.144963309,0.221109555,-1.391518867,0.213274462
-0.960017622,-0.219312295,-0.173977435,-0.013920784,0.011060253,0.029339612,-0.071921133,0.183369115,-0.144963309,0.221109555,-1.391518867,0.213274462
-0.960017622,-0.219312295,-0.173977435,-0.013920784,0.011060253,0.029339612,-0.071921133,0.183369115,-0.144963309,0.221109555,-1.391518867,0.213274462
-0.960017622,-0.219312295,-0.173977435,-0.013920784,0.011060253,0.029339612,-0.071921133,0.183369115,-0.144963309,0.221109555,-1.391518867,0.213274462
-0.960017622,-0.219312295,-0.173977435,-0.013920784,0.011060253,0.029339612,-0.071921133,0.183369115,-0.144963309,0.221109555,-1.391518867,0.213274462
-0.960017622,-0.219312295,-0.173977435,-0.013920784,0.011060253,0.029339612,-0.071921133,0.183369115,-0.144963309,0.221109555,-1.391518867,0.213274462
-0.960017622,-0.219312295,-0.173977435,-0.013920784,0.011060253,0.029339612,-0.071921133,0.183369115,-0.144963309,0.221109555,-1.391518867,0.213274462
-0.960017622,-0.219312295,-0.173977435,-0.013920784,0.011060253,0.029339612,-0.071921133,0.183369115,-0.144963309,0.221109555,-1.391518867,0.213274462
-0.960017622,-0.219312295,-0.173977435,-0.013920784,0.011060253,0.029339612,-0.071921133,0.183369115,-0.144963309,0.221109555,-1.391518867,0.213274462
-0.960017622,-0.219312295,-0.173977435,-0.013920784,0.011060253,0.029339612,-0.071921133,0.183369115,-0.144963309,0.221109555,-1.391518867,0.213274462
-0.960017622,-0.219312295,-0.173977435,-0.013920784,0.011060253,0.029339612,-0.071921133,0.183369115,-0.144963309,0.221109555,-1.391518867,0.213274462
-0.960017622,-0.219312295,-0.173977435,-0.013920784,0.011060253,0.029339612,-0.071921133,0.183369115,-0.144963309,0.221109555,-1.391518867,0.213274462
-0.960017622,-0.219312295,-0.173977435,-0.013920784,0.011060253,0.029339612,-0.071921133,0.183369115,-0.144963309,0.221109555,-1.391518867,0.213274462
-0.960017622,-0.219312295,-0.173977435,-0.013920784,0.011060253,0.029339612,-0.071921133,0.183369115,-0.144963309,0.221109555,-1.391518867,0.213274462
-0.956972539,-0.224837929,-0.18344304,-0.009915948,0.019210473,0.041276813,-0.026930341,0.245967671,-0.188631371,0.226776709,-1.381402796,0.210623909
-0.956972539,-0.224837929,-0.18344304,-0.009915948,0.019210473,0.041276813,-0.026930341,0.245967671,-0.188631371,0.226776709,-1.381402796,0.210623909
-0.956972539,-0.224837929,-0.18344304,-0.009915948,0.019210473,0.041276813,-0.026930341,0.245967671,-0.188631371,0.226776709,-1.381402796,0.210623909
-0.956972539,-0.224837929,-0.18344304,-0.009915948,0.019210473,0.041276813,-0.026930341,0.245967671,-0.188631371,0.226776709,-1.381402796,0.210623909
-0.956972539,-0.224837929,-0.18344304,-0.009915948,0.019210473,0.041276813,-0.026930341,0.245967671,-0.188631371,0.226776709,-1.381402796,0.210623909
-0.956972539,-0.224837929,-0.18344304,-0.009915948,0.019210473,0.041276813,-0.026930341,0.245967671,-0.188631371,0.226776709,-1.381402796,0.210623909
-0.956972539,-0.224837929,-0.18344304,-0.009915948,0.019210473,0.041276813,-0.026930341,0.245967671,-0.188631371,0.226776709,-1.381402796,0.210623909
-0.956972539,-0.224837929,-0.18344304,-0.009915948,0.019210473,0.041276813,-0.026930341,0.245967671,-0.188631371,0.226776709,-1.381402796,0.210623909
-0.956972539,-0.224837929,-0.18344304,-0.009915948,0.019210473,0.041276813,-0.026930341,0.245967671,-0.188631371,0.226776709,-1.381402796,0.210623909
-0.956972539,-0.224837929,-0.18344304,-0.009915948,0.019210473,0.041276813,-0.026930341,0.245967671,-0.188631371,0.226776709,-1.381402796,0.210623909
-0.956972539,-0.224837929,-0.18344304,-0.009915948,0.019210473,0.041276813,-0.026930341,0.245967671,-0.188631371,0.226776709,-1.381402796,0.210623909
-0.956972539,-0.224837929,-0.18344304,-0.009915948,0.019210473,0.041276813,-0.026930341,0.245967671,-0.188631371,0.226776709,-1.381402796,0.210623909
-0.956972539,-0.224837929,-0.18344304,-0.009915948,0.019210473,0.041276813,-0.026930341,0.245967671,-0.188631371,0.226776709,-1.381402796,0.210623909
-0.956972539,-0.224837929,-0.18344304,-0.009915948,0.019210473,0.041276813,-0.026930341,0.245967671,-0.188631371,0.226776709,-1.381402796,0.210623909
-0.956972539,-0.224837929,-0.18344304,-0.009915948,0.019210473,0.041276813,-0.026930341,0.245967671,-0.188631371,0.226776709,-1.381402796,0.210623909
-0.954319119,-0.230820432,-0.18972829,-0.004421234,0.028916121,0.039551258,-0.138788313,0.145880997,-0.220817909,0.232920804,-1.374545143,0.206262932
-0.954319119,-0.230820432,-0.18972829,-0.004421234,0.028916121,0.039551258,-0.138788313,0.145880997,-0.220817909,0.232920804,-1.374545143,0.206262932
-0.954319119,-0.230820432,-0.18972829,-0.004421234,0.028916121,0.039551258,-0.138788313,0.145880997,-0.220817909,0.232920804,-1.374545143,0.206262932
-0.954319119,-0.230820432,-0.18972829,-0.004421234,0.028916121,0.039551258,-0.138788313,0.145880997,-0.220817909,0.232920804,-1.374545143,0.206262932
-0.954319119,-0.230820432,-0.18972829,-0.004421234,0.028916121,0.039551258,-0.138788313,0.145880997,-0.220817909,0.232920804,-1.374545143,0.206262932
-0.954319119,-0.230820432,-0.18972829,-0.004421234,0.028916121,0.039551258,-0.138788313,0.145880997,-0.220817909,0.232920804,-1.374545143,0.206262932
-0.954319119,-0.230820432,-0.18972829,-0.004421234,0.028916121,0.039551258,-0.138788313,0.145880997,-0.220817909,0.232920804,-1.374545143,0.206262932
-0.954319119,-0.230820432,-0.18972829,-0.004421234,0.028916121,0.039551258,-0.138788313,0.145880997,-0.220817909,0.232920804,-1.374545143,0.206262932
-0.954319119,-0.230820432,-0.18972829,-0.004421234,0.028916121,0.039551258,-0.138788313,0.145880997,-0.220817909,0.232920804,-1.374545143,0.206262932
-0.952733815,-0.235013843,-0.192526728,-0.023310184,0.042035878,0.055304527,-0.280332208,0.11981757,-0.214930147,0.237232804,-1.371403302,0.19717811
-0.952733815,-0.235013843,-0.192526728,-0.023310184,0.042035878,0.055304527,-0.280332208,0.11981757,-0.214930147,0.237232804,-1.371403302,0.19717811
-0.952733815,-0.235013843,-0.192526728,-0.023310184,0.042035878,0.055304527,-0.280332208,0.11981757,-0.214930147,0.237232804,-1.371403302,0.19717811
-0.952733815,-0.235013843,-0.192526728,-0.023310184,0.042035878,0.055304527,-0.280332208,0.11981757,-0.214930147,0.237232804,-1.371403302,0.19717811
-0.952733815,-0.235013843,-0.192526728,-0.023310184,0.042035878,0.055304527,-0.280332208,0.11981757,-0.214930147,0.237232804,-1.371403302,0.19717811
-0.952733815,-0.235013843,-0.192526728,-0.023310184,0.042035878,0.055304527,-0.280332208,0.11981757,-0.214930147,0.237232804,-1.371403302,0.19717811
-0.952733815,-0.235013843,-0.192526728,-0.023310184,0.042035878,0.055304527,-0.280332208,0.11981757,-0.214930147,0.237232804,-1.371403302,0.19717811
-0.952733815,-0.235013843,-0.192526728,-0.023310184,0.042035878,0.055304527,-0.280332208,0.11981757,-0.214930147,0.237232804,-1.371403302,0.19717811
-0.952733815,-0.235013843,-0.192526728,-0.023310184,0.042035878,0.055304527,-0.280332208,0.11981757,-0.214930147,0.237232804,-1.371403302,0.19717811
-0.952733815,-0.235013843,-0.192526728,-0.023310184,0.042035878,0.055304527,-0.280332208,0.11981757,-0.214930147,0.237232804,-1.371403302,0.19717811
-0.952733815,-0.235013843,-0.192526728,-0.023310184,0.042035878,0.055304527,-0.280332208,0.11981757,-0.214930147,0.237232804,-1.371403302,0.19717811
-0.952733815,-0.235013843,-0.192526728,-0.023310184,0.042035878,0.055304527,-0.280332208,0.11981757,-0.214930147,0.237232804,-1.371403302,0.19717811
-0.951127112,-0.238571137,-0.196063727,0.014252067,0.055541828,0.054050624,-0.383320808,0.042757064,-0.227664798,0.240894229,-1.367505575,0.182331847
-0.951127112,-0.238571137,-0.196063727,0.014252067,0.055541828,0.054050624,-0.383320808,0.042757064,-0.227664798,0.240894229,-1.367505575,0.182331847
-0.951127112,-0.238571137,-0.196063727,0.014252067,0.055541828,0.054050624,-0.383320808,0.042757064,-0.227664798,0.240894229,-1.367505575,0.182331847
-0.951127112,-0.238571137,-0.196063727,0.014252067,0.055541828,0.054050624,-0.383320808,0.042757064,-0.227664798,0.240894229,-1.367505575,0.182331847
-0.951127112,-0.238571137,-0.196063727,0.014252067,0.055541828,0.054050624,-0.383320808,0.042757064,-0.227664798,0.240894229,-1.367505575,0.182331847
-0.951127112,-0.238571137,-0.196063727,0.014252067,0.055541828,0.054050624,-0.383320808,0.042757064,-0.227664798,0.240894229,-1.367505575,0.182331847
-0.951127112,-0.238571137,-0.196063727,0.014252067,0.055541828,0.054050624,-0.383320808,0.042757064,-0.227664798,0.240894229,-1.367505575,0.182331847
-0.951127112,-0.238571137,-0.196063727,0.014252067,0.055541828,0.054050624,-0.383320808,0.042757064,-0.227664798,0.240894229,-1.367505575,0.182331847
-0.951127112,-0.238571137,-0.196063727,0.014252067,0.055541828,0.054050624,-0.383320808,0.042757064,-0.227664798,0.240894229,-1.367505575,0.182331847
-0.951127112,-0.238571137,-0.196063727,0.014252067,0.055541828,0.054050624,-0.383320808,0.042757064,-0.227664798,0.240894229,-1.367505575,0.182331847
-0.951127112,-0.238571137,-0.196063727,0.014252067,0.055541828,0.054050624,-0.383320808,0.042757064,-0.227664798,0.240894229,-1.367505575,0.182331847
-0.951127112,-0.238571137,-0.196063727,0.014252067,0.055541828,0.054050624,-0.383320808,0.042757064,-0.227664798,0.240894229,-1.367505575,0.182331847
-0.949938774,-0.241364092,-0.198392451,0.029024184,0.085251227,0.05645591,-0.394586772,0.033032663,-0.200008348,0.243771252,-1.364908096,0.165809509
-0.949938774,-0.241364092,-0.198392451,0.029024184,0.085251227,0.05645591,-0.394586772,0.033032663,-0.200008348,0.243771252,-1.364908096,0.165809509
-0.949938774,-0.241364092,-0.198392451,0.029024184,0.085251227,0.05645591,-0.394586772,0.033032663,-0.200008348,0.243771252,-1.364908096,0.165809509
-0.949938774,-0.241364092,-0.198392451,0.029024184,0.085251227,0.05645591,-0.394586772,0.033032663,-0.200008348,0.243771252,-1.364908096,0.165809509
-0.949938774,-0.241364092,-0.198392451,0.029024184,0.085251227,0.05645591,-0.394586772,0.033032663,-0.200008348,0.243771252,-1.364908096,0.165809509
-0.949938774,-0.241364092,-0.198392451,0.029024184,0.085251227,0.05645591,-0.394586772,0.033032663,-0.200008348,0.243771252,-1.364908096,0.165809509
-0.949938774,-0.241364092,-0.198392451,0.029024184,0.085251227,0.05645591,-0.394586772,0.033032663,-0.200008348,0.243771252,-1.364908096,0.165809509
-0.949938774,-0.241364092,-0.198392451,0.029024184,0.085251227,0.05645591,-0.394586772,0.033032663,-0.200008348,0.243771252,-1.364908096,0.165809509
-0.949938774,-0.241364092,-0.198392451,0.029024184,0.085251227,0.05645591,-0.394586772,0.033032663,-0.200008348,0.243771252,-1.364908096,0.165809509
-0.949938774,-0.241364092,-0.198392451,0.029024184,0.085251227,0.05645591,-0.394586772,0.033032663,-0.200008348,0.243771252,-1.364908096,0.165809509
-0.949938774,-0.241364092,-0.198392451,0.029024184,0.085251227,0.05645591,-0.394586772,0.033032663,-0.200008348,0.243771252,-1.364908096,0.165809509
-0.949938774,-0.241364092,-0.198392451,0.029024184,0.085251227,0.05645591,-0.394586772,0.033032663,-0.200008348,0.243771252,-1.364908096,0.165809509
-0.949500024,-0.241560057,-0.200245738,0.015966356,0.091794848,0.050206721,-0.329759121,0.021017402,-0.0645824,0.243973199,-1.362946149,0.150019335
-0.949500024,-0.241560057,-0.200245738,0.015966356,0.091794848,0.050206721,-0.329759121,0.021017402,-0.0645824,0.243973199,-1.362946149,0.150019335
-0.949500024,-0.241560057,-0.200245738,0.015966356,0.091794848,0.050206721,-0.329759121,0.021017402,-0.0645824,0.243973199,-1.362946149,0.150019335
-0.949500024,-0.241560057,-0.200245738,0.015966356,0.091794848,0.050206721,-0.329759121,0.021017402,-0.0645824,0.243973199,-1.362946149,0.150019335
-0.949500024,-0.241560057,-0.200245738,0.015966356,0.091794848,0.050206721,-0.329759121,0.021017402,-0.0645824,0.243973199,-1.362946149,0.150019335
-0.949500024,-0.241560057,-0.200245738,0.015966356,0.091794848,0.050206721,-0.329759121,0.021017402,-0.0645824,0.243973199,-1.362946149,0.150019335
-0.949500024,-0.241560057,-0.200245738,0.015966356,0.091794848,0.050206721,-0.329759121,0.021017402,-0.0645824,0.243973199,-1.362946149,0.150019335
-0.950352371,-0.237292081,-0.201302797,0.024814129,0.088182926,0.064294994,-0.115250379,0.049587201,0.052809097,0.239577363,-1.3620625,0.14161566
-0.950352371,-0.237292081,-0.201302797,0.024814129,0.088182926,0.064294994,-0.115250379,0.049587201,0.052809097,0.239577363,-1.3620625,0.14161566
-0.950352371,-0.237292081,-0.201302797,0.024814129,0.088182926,0.064294994,-0.115250379,0.049587201,0.052809097,0.239577363,-1.3620625,0.14161566
-0.950352371,-0.237292081,-0.201302797,0.024814129,0.088182926,0.064294994,-0.115250379,0.049587201,0.052809097,0.239577363,-1.3620625,0.14161566
-0.950352371,-0.237292081,-0.201302797,0.024814129,0.088182926,0.064294994,-0.115250379,0.049587201,0.052809097,0.239577363,-1.3620625,0.14161566
-0.950352371,-0.237292081,-0.201302797,0.024814129,0.088182926,0.064294994,-0.115250379,0.049587201,0.052809097,0.239577363,-1.3620625,0.14161566
-0.950352371,-0.237292081,-0.201302797,0.024814129,0.088182926,0.064294994,-0.115250379,0.049587201,0.052809097,0.239577363,-1.3620625,0.14161566
-0.950352371,-0.237292081,-0.201302797,0.024814129,0.088182926,0.064294994,-0.115250379,0.049587201,0.052809097,0.239577363,-1.3620625,0.14161566
-0.950352371,-0.237292081,-0.201302797,0.024814129,0.088182926,0.064294994,-0.115250379,0.049587201,0.052809097,0.239577363,-1.3620625,0.14161566
-0.950352371,-0.237292081,-0.201302797,0.024814129,0.088182926,0.064294994,-0.115250379,0.049587201,0.052809097,0.239577363,-1.3620625,0.14161566
-0.950352371,-0.237292081,-0.201302797,0.024814129,0.088182926,0.064294994,-0.115250379,0.049587201,0.052809097,0.239577363,-1.3620625,0.14161566
-0.950352371,-0.237292081,-0.201302797,0.024814129,0.088182926,0.064294994,-0.115250379,0.049587201,0.052809097,0.239577363,-1.3620625,0.14161566
-0.950352371,-0.237292081,-0.201302797,0.024814129,0.088182926,0.064294994,-0.115250379,0.049587201,0.052809097,0.239577363,-1.3620625,0.14161566
-0.950352371,-0.237292081,-0.201302797,0.024814129,0.088182926,0.064294994,-0.115250379,0.049587201,0.052809097,0.239577363,-1.3620625,0.14161566
-0.951966286,-0.230925933,-0.201080039,0.020431161,0.064360693,0.067414045,-0.013347367,0.013485048,0.09969224,0.233029232,-1.362630196,0.140725992
-0.951966286,-0.230925933,-0.201080039,0.020431161,0.064360693,0.067414045,-0.013347367,0.013485048,0.09969224,0.233029232,-1.362630196,0.140725992
-0.951966286,-0.230925933,-0.201080039,0.020431161,0.064360693,0.067414045,-0.013347367,0.013485048,0.09969224,0.233029232,-1.362630196,0.140725992
-0.951966286,-0.230925933,-0.201080039,0.020431161,0.064360693,0.067414045,-0.013347367,0.013485048,0.09969224,0.233029232,-1.362630196,0.140725992
-0.951966286,-0.230925933,-0.201080039,0.020431161,0.064360693,0.067414045,-0.013347367,0.013485048,0.09969224,0.233029232,-1.362630196,0.140725992
-0.951966286,-0.230925933,-0.201080039,0.020431161,0.064360693,0.067414045,-0.013347367,0.013485048,0.09969224,0.233029232,-1.362630196,0.140725992
-0.951966286,-0.230925933,-0.201080039,0.020431161,0.064360693,0.067414045,-0.013347367,0.013485048,0.09969224,0.233029232,-1.362630196,0.140725992
-0.951966286,-0.230925933,-0.201080039,0.020431161,0.064360693,0.067414045,-0.013347367,0.013485048,0.09969224,0.233029232,-1.362630196,0.140725992
-0.951966286,-0.230925933,-0.201080039,0.020431161,0.064360693,0.067414045,-0.013347367,0.013485048,0.09969224,0.233029232,-1.362630196,0.140725992
-0.951966286,-0.230925933,-0.201080039,0.020431161,0.064360693,0.067414045,-0.013347367,0.013485048,0.09969224,0.233029232,-1.362630196,0.140725992
-0.951966286,-0.230925933,-0.201080039,0.020431161,0.064360693,0.067414045,-0.013347367,0.013485048,0.09969224,0.233029232,-1.362630196,0.140725992
-0.954334259,-0.223848701,-0.197832882,0.01939559,0.038621813,0.049564838,-0.000279635,-0.071205094,0.118619591,0.225761606,-1.366392097,0.14165402
-0.954334259,-0.223848701,-0.197832882,0.01939559,0.038621813,0.049564838,-0.000279635,-0.071205094,0.118619591,0.225761606,-1.366392097,0.14165402
-0.954334259,-0.223848701,-0.197832882,0.01939559,0.038621813,0.049564838,-0.000279635,-0.071205094,0.118619591,0.225761606,-1.366392097,0.14165402
-0.954334259,-0.223848701,-0.197832882,0.01939559,0.038621813,0.049564838,-0.000279635,-0.071205094,0.118619591,0.225761606,-1.366392097,0.14165402
-0.954334259,-0.223848701,-0.197832882,0.01939559,0.038621813,0.049564838,-0.000279635,-0.071205094,0.118619591,0.225761606,-1.366392097,0.14165402
-0.954334259,-0.223848701,-0.197832882,0.01939559,0.038621813,0.049564838,-0.000279635,-0.071205094,0.118619591,0.225761606,-1.366392097,0.14165402
-0.957208216,-0.216927201,-0.191559136,0.003363609,0.025505185,0.053438544,0.037496824,-0.121353388,0.153058738,0.218665612,-1.373282744,0.144356526
-0.957208216,-0.216927201,-0.191559136,0.003363609,0.025505185,0.053438544,0.037496824,-0.121353388,0.153058738,0.218665612,-1.373282744,0.144356526
-0.957208216,-0.216927201,-0.191559136,0.003363609,0.025505185,0.053438544,0.037496824,-0.121353388,0.153058738,0.218665612,-1.373282744,0.144356526
-0.960021317,-0.210457444,-0.184571251,0.007916451,0.008323774,0.036669612,0.014149851,-0.169525638,0.141971841,0.212042857,-1.380856492,0.146872887
-0.960021317,-0.210457444,-0.184571251,0.007916451,0.008323774,0.036669612,0.014149851,-0.169525638,0.141971841,0.212042857,-1.380856492,0.146872887
-0.960021317,-0.210457444,-0.184571251,0.007916451,0.008323774,0.036669612,0.014149851,-0.169525638,0.141971841,0.212042857,-1.380856492,0.146872887
-0.962874651,-0.205173597,-0.175431088,0.005826235,0.007404044,0.012804389,0.020410703,-0.211132154,0.115560845,0.20664108,-1.390577943,0.148571215
-0.962874651,-0.205173597,-0.175431088,0.005826235,0.007404044,0.012804389,0.020410703,-0.211132154,0.115560845,0.20664108,-1.390577943,0.148571215
-0.962874651,-0.205173597,-0.175431088,0.005826235,0.007404044,0.012804389,0.020410703,-0.211132154,0.115560845,0.20664108,-1.390577943,0.148571215
-0.962874651,-0.205173597,-0.175431088,0.005826235,0.007404044,0.012804389,0.020410703,-0.211132154,0.115560845,0.20664108,-1.390577943,0.148571215
-0.962874651,-0.205173597,-0.175431088,0.005826235,0.007404044,0.012804389,0.020410703,-0.211132154,0.115560845,0.20664108,-1.390577943,0.148571215
-0.962874651,-0.205173597,-0.175431088,0.005826235,0.007404044,0.012804389,0.020410703,-0.211132154,0.115560845,0.20664108,-1.390577943,0.148571215
-0.965294659,-0.201563835,-0.166065827,0.006461203,0.014490753,0.008581161,0.125445366,-0.189843476,0.10668847,0.202954266,-1.400427635,0.15275756
-0.965294659,-0.201563835,-0.166065827,0.006461203,0.014490753,0.008581161,0.125445366,-0.189843476,0.10668847,0.202954266,-1.400427635,0.15275756
-0.965294659,-0.201563835,-0.166065827,0.006461203,0.014490753,0.008581161,0.125445366,-0.189843476,0.10668847,0.202954266,-1.400427635,0.15275756
-0.965294659,-0.201563835,-0.166065827,0.006461203,0.014490753,0.008581161,0.125445366,-0.189843476,0.10668847,0.202954266,-1.400427635,0.15275756
-0.965294659,-0.201563835,-0.166065827,0.006461203,0.014490753,0.008581161,0.125445366,-0.189843476,0.10668847,0.202954266,-1.400427635,0.15275756
-0.965294659,-0.201563835,-0.166065827,0.006461203,0.014490753,0.008581161,0.125445366,-0.189843476,0.10668847,0.202954266,-1.400427635,0.15275756
-0.965294659,-0.201563835,-0.166065827,0.006461203,0.014490753,0.008581161,0.125445366,-0.189843476,0.10668847,0.202954266,-1.400427635,0.15275756
-0.965294659,-0.201563835,-0.166065827,0.006461203,0.014490753,0.008581161,0.125445366,-0.189843476,0.10668847,0.202954266,-1.400427635,0.15275756
-0.965294659,-0.201563835,-0.166065827,0.006461203,0.014490753,0.008581161,0.125445366,-0.189843476,0.10668847,0.202954266,-1.400427635,0.15275756
-0.965294659,-0.201563835,-0.166065827,0.006461203,0.014490753,0.008581161,0.125445366,-0.189843476,0.10668847,0.202954266,-1.400427635,0.15275756
-0.965294659,-0.201563835,-0.166065827,0.006461203,0.014490753,0.008581161,0.125445366,-0.189843476,0.10668847,0.202954266,-1.400427635,0.15275756
-0.965294659,-0.201563835,-0.166065827,0.006461203,0.014490753,0.008581161,0.125445366,-0.189843476,0.10668847,0.202954266,-1.400427635,0.15275756
-0.965294659,-0.201563835,-0.166065827,0.006461203,0.014490753,0.008581161,0.125445366,-0.189843476,0.10668847,0.202954266,-1.400427635,0.15275756
-0.965294659,-0.201563835,-0.166065827,0.006461203,0.014490753,0.008581161,0.125445366,-0.189843476,0.10668847,0.202954266,-1.400427635,0.15275756
-0.965294659,-0.201563835,-0.166065827,0.006461203,0.014490753,0.008581161,0.125445366,-0.189843476,0.10668847,0.202954266,-1.400427635,0.15275756
-0.967494428,-0.197767004,-0.157615453,0.009882092,-0.014696613,-0.021628559,0.055734552,-0.214979723,0.12872304,0.199079403,-1.409304061,0.157879959
-0.967494428,-0.197767004,-0.157615453,0.009882092,-0.014696613,-0.021628559,0.055734552,-0.214979723,0.12872304,0.199079403,-1.409304061,0.157879959
-0.967494428,-0.197767004,-0.157615453,0.009882092,-0.014696613,-0.021628559,0.055734552,-0.214979723,0.12872304,0.199079403,-1.409304061,0.157879959
-0.969875038,-0.192442998,-0.149358407,-0.000417352,-0.020310521,-0.041512787,-0.060777053,-0.240488172,0.127122328,0.19365107,-1.417999087,0.158309442
-0.969875038,-0.192442998,-0.149358407,-0.000417352,-0.020310521,-0.041512787,-0.060777053,-0.240488172,0.127122328,0.19365107,-1.417999087,0.158309442
-0.969875038,-0.192442998,-0.149358407,-0.000417352,-0.020310521,-0.041512787,-0.060777053,-0.240488172,0.127122328,0.19365107,-1.417999087,0.158309442
-0.969875038,-0.192442998,-0.149358407,-0.000417352,-0.020310521,-0.041512787,-0.060777053,-0.240488172,0.127122328,0.19365107,-1.417999087,0.158309442
-0.969875038,-0.192442998,-0.149358407,-0.000417352,-0.020310521,-0.041512787,-0.060777053,-0.240488172,0.127122328,0.19365107,-1.417999087,0.158309442
-0.969875038,-0.192442998,-0.149358407,-0.000417352,-0.020310521,-0.041512787,-0.060777053,-0.240488172,0.127122328,0.19365107,-1.417999087,0.158309442
-0.971858799,-0.187556013,-0.142524123,-0.016622424,-0.020955622,-0.0500862,-0.105860174,-0.212377444,0.111679181,0.188673413,-1.425183227,0.154984559
-0.971858799,-0.187556013,-0.142524123,-0.016622424,-0.020955622,-0.0500862,-0.105860174,-0.212377444,0.111679181,0.188673413,-1.425183227,0.154984559
-0.971858799,-0.187556013,-0.142524123,-0.016622424,-0.020955622,-0.0500862,-0.105860174,-0.212377444,0.111679181,0.188673413,-1.425183227,0.154984559
-0.971858799,-0.187556013,-0.142524123,-0.016622424,-0.020955622,-0.0500862,-0.105860174,-0.212377444,0.111679181,0.188673413,-1.425183227,0.154984559
-0.971858799,-0.187556013,-0.142524123,-0.016622424,-0.020955622,-0.0500862,-0.105860174,-0.212377444,0.111679181,0.188673413,-1.425183227,0.154984559
-0.971858799,-0.187556013,-0.142524123,-0.016622424,-0.020955622,-0.0500862,-0.105860174,-0.212377444,0.111679181,0.188673413,-1.425183227,0.154984559
-0.971858799,-0.187556013,-0.142524123,-0.016622424,-0.020955622,-0.0500862,-0.105860174,-0.212377444,0.111679181,0.188673413,-1.425183227,0.154984559
-0.971858799,-0.187556013,-0.142524123,-0.016622424,-0.020955622,-0.0500862,-0.105860174,-0.212377444,0.111679181,0.188673413,-1.425183227,0.154984559
-0.971858799,-0.187556013,-0.142524123,-0.016622424,-0.020955622,-0.0500862,-0.105860174,-0.212377444,0.111679181,0.188673413,-1.425183227,0.154984559
-0.971858799,-0.187556013,-0.142524123,-0.016622424,-0.020955622,-0.0500862,-0.105860174,-0.212377444,0.111679181,0.188673413,-1.425183227,0.154984559
-0.971858799,-0.187556013,-0.142524123,-0.016622424,-0.020955622,-0.0500862,-0.105860174,-0.212377444,0.111679181,0.188673413,-1.425183227,0.154984559
-0.971858799,-0.187556013,-0.142524123,-0.016622424,-0.020955622,-0.0500862,-0.105860174,-0.212377444,0.111679181,0.188673413,-1.425183227,0.154984559
-0.972998202,-0.184662208,-0.138470486,-0.017253101,-0.019576982,-0.050187826,-0.094129696,-0.1463871,0.051505268,0.18572815,-1.429432381,0.15100009
-0.972998202,-0.184662208,-0.138470486,-0.017253101,-0.019576982,-0.050187826,-0.094129696,-0.1463871,0.051505268,0.18572815,-1.429432381,0.15100009
-0.972998202,-0.184662208,-0.138470486,-0.017253101,-0.019576982,-0.050187826,-0.094129696,-0.1463871,0.051505268,0.18572815,-1.429432381,0.15100009
-0.973240793,-0.184264973,-0.137289926,-0.02566278,-0.020035341,-0.046103656,-0.104997724,-0.062287971,-0.019179022,0.185323979,-1.430656305,0.146815687
-0.973240793,-0.184264973,-0.137289926,-0.02566278,-0.020035341,-0.046103656,-0.104997724,-0.062287971,-0.019179022,0.185323979,-1.430656305,0.146815687
-0.973240793,-0.184264973,-0.137289926,-0.02566278,-0.020035341,-0.046103656,-0.104997724,-0.062287971,-0.019179022,0.185323979,-1.430656305,0.146815687
-0.972598791,-0.185921177,-0.139587387,-0.022490859,-0.007194594,-0.03484863,-0.08786232,0.024496034,-0.066849232,0.187009299,-1.428249721,0.142058649
-0.972598791,-0.185921177,-0.139587387,-0.022490859,-0.007194594,-0.03484863,-0.08786232,0.024496034,-0.066849232,0.187009299,-1.428249721,0.142058649
-0.972598791,-0.185921177,-0.139587387,-0.022490859,-0.007194594,-0.03484863,-0.08786232,0.024496034,-0.066849232,0.187009299,-1.428249721,0.142058649
-0.969493687,-0.193946362,-0.149888873,-0.03025049,0.014471799,0.007680058,0.064318292,0.173655391,-0.130394921,0.195183301,-1.41740548,0.138639501
-0.969493687,-0.193946362,-0.149888873,-0.03025049,0.014471799,0.007680058,0.064318292,0.173655391,-0.130394921,0.195183301,-1.41740548,0.138639501
-0.969493687,-0.193946362,-0.149888873,-0.03025049,0.014471799,0.007680058,0.064318292,0.173655391,-0.130394921,0.195183301,-1.41740548,0.138639501
-0.969493687,-0.193946362,-0.149888873,-0.03025049,0.014471799,0.007680058,0.064318292,0.173655391,-0.130394921,0.195183301,-1.41740548,0.138639501
-0.969493687,-0.193946362,-0.149888873,-0.03025049,0.014471799,0.007680058,0.064318292,0.173655391,-0.130394921,0.195183301,-1.41740548,0.138639501
-0.969493687,-0.193946362,-0.149888873,-0.03025049,0.014471799,0.007680058,0.064318292,0.173655391,-0.130394921,0.195183301,-1.41740548,0.138639501
-0.967237055,-0.199750364,-0.156691074,0.000909686,0.017147735,0.024995387,0.069894098,0.16216217,-0.16753079,0.20110314,-1.410192936,0.140342024
-0.967237055,-0.199750364,-0.156691074,0.000909686,0.017147735,0.024995387,0.069894098,0.16216217,-0.16753079,0.20110314,-1.410192936,0.140342024
-0.967237055,-0.199750364,-0.156691074,0.000909686,0.017147735,0.024995387,0.069894098,0.16216217,-0.16753079,0.20110314,-1.410192936,0.140342024
-0.967237055,-0.199750364,-0.156691074,0.000909686,0.017147735,0.024995387,0.069894098,0.16216217,-0.16753079,0.20110314,-1.410192936,0.140342024
-0.967237055,-0.199750364,-0.156691074,0.000909686,0.017147735,0.024995387,0.069894098,0.16216217,-0.16753079,0.20110314,-1.410192936,0.140342024
-0.965208054,-0.205285892,-0.161959782,0.001612425,0.019005924,0.037481189,0.007970905,0.142416745,-0.145792097,0.206755806,-1.404547306,0.141361432
-0.965208054,-0.205285892,-0.161959782,0.001612425,0.019005924,0.037481189,0.007970905,0.142416745,-0.145792097,0.206755806,-1.404547306,0.141361432
-0.965208054,-0.205285892,-0.161959782,0.001612425,0.019005924,0.037481189,0.007970905,0.142416745,-0.145792097,0.206755806,-1.404547306,0.141361432
-0.965208054,-0.205285892,-0.161959782,0.001612425,0.019005924,0.037481189,0.007970905,0.142416745,-0.145792097,0.206755806,-1.404547306,0.141361432
-0.965208054,-0.205285892,-0.161959782,0.001612425,0.019005924,0.037481189,0.007970905,0.142416745,-0.145792097,0.206755806,-1.404547306,0.141361432
-0.965208054,-0.205285892,-0.161959782,0.001612425,0.019005924,0.037481189,0.007970905,0.142416745,-0.145792097,0.206755806,-1.404547306,0.141361432
-0.965208054,-0.205285892,-0.161959782,0.001612425,0.019005924,0.037481189,0.007970905,0.142416745,-0.145792097,0.206755806,-1.404547306,0.141361432
-0.965208054,-0.205285892,-0.161959782,0.001612425,0.019005924,0.037481189,0.007970905,0.142416745,-0.145792097,0.206755806,-1.404547306,0.141361432
-0.965208054,-0.205285892,-0.161959782,0.001612425,0.019005924,0.037481189,0.007970905,0.142416745,-0.145792097,0.206755806,-1.404547306,0.141361432
-0.963864625,-0.20909515,-0.165058151,0.007303059,0.02852194,0.042059779,-0.013450619,0.076820105,-0.098588042,0.210649561,-1.401195228,0.140083749
-0.963864625,-0.20909515,-0.165058151,0.007303059,0.02852194,0.042059779,-0.013450619,0.076820105,-0.098588042,0.210649561,-1.401195228,0.140083749
-0.963864625,-0.20909515,-0.165058151,0.007303059,0.02852194,0.042059779,-0.013450619,0.076820105,-0.098588042,0.210649561,-1.401195228,0.140083749
-0.963864625,-0.20909515,-0.165058151,0.007303059,0.02852194,0.042059779,-0.013450619,0.076820105,-0.098588042,0.210649561,-1.401195228,0.140083749
-0.963864625,-0.20909515,-0.165058151,0.007303059,0.02852194,0.042059779,-0.013450619,0.076820105,-0.098588042,0.210649561,-1.401195228,0.140083749
-0.963864625,-0.20909515,-0.165058151,0.007303059,0.02852194,0.042059779,-0.013450619,0.076820105,-0.098588042,0.210649561,-1.401195228,0.140083749
-0.963864625,-0.20909515,-0.165058151,0.007303059,0.02852194,0.042059779,-0.013450619,0.076820105,-0.098588042,0.210649561,-1.401195228,0.140083749
-0.963864625,-0.20909515,-0.165058151,0.007303059,0.02852194,0.042059779,-0.013450619,0.076820105,-0.098588042,0.210649561,-1.401195228,0.140083749
-0.963864625,-0.20909515,-0.165058151,0.007303059,0.02852194,0.042059779,-0.013450619,0.076820105,-0.098588042,0.210649561,-1.401195228,0.140083749
-0.963864625,-0.20909515,-0.165058151,0.007303059,0.02852194,0.042059779,-0.013450619,0.076820105,-0.098588042,0.210649561,-1.401195228,0.140083749
-0.963864625,-0.20909515,-0.165058151,0.007303059,0.02852194,0.042059779,-0.013450619,0.076820105,-0.098588042,0.210649561,-1.401195228,0.140083749
-0.963864625,-0.20909515,-0.165058151,0.007303059,0.02852194,0.042059779,-0.013450619,0.076820105,-0.098588042,0.210649561,-1.401195228,0.140083749
-0.963210523,-0.211722419,-0.165526286,0.007533491,0.038335994,0.053835154,0.060354922,0.045600761,-0.080544755,0.213336998,-1.400610139,0.140849587
-0.963210523,-0.211722419,-0.165526286,0.007533491,0.038335994,0.053835154,0.060354922,0.045600761,-0.080544755,0.213336998,-1.400610139,0.140849587
-0.963210523,-0.211722419,-0.165526286,0.007533491,0.038335994,0.053835154,0.060354922,0.045600761,-0.080544755,0.213336998,-1.400610139,0.140849587
-0.963210523,-0.211722419,-0.165526286,0.007533491,0.038335994,0.053835154,0.060354922,0.045600761,-0.080544755,0.213336998,-1.400610139,0.140849587
-0.963210523,-0.211722419,-0.165526286,0.007533491,0.038335994,0.053835154,0.060354922,0.045600761,-0.080544755,0.213336998,-1.400610139,0.140849587
-0.963210523,-0.211722419,-0.165526286,0.007533491,0.038335994,0.053835154,0.060354922,0.045600761,-0.080544755,0.213336998,-1.400610139,0.140849587
-0.963210523,-0.211722419,-0.165526286,0.007533491,0.038335994,0.053835154,0.060354922,0.045600761,-0.080544755,0.213336998,-1.400610139,0.140849587
-0.963210523,-0.211722419,-0.165526286,0.007533491,0.038335994,0.053835154,0.060354922,0.045600761,-0.080544755,0.213336998,-1.400610139,0.140849587
-0.963210523,-0.211722419,-0.165526286,0.007533491,0.038335994,0.053835154,0.060354922,0.045600761,-0.080544755,0.213336998,-1.400610139,0.140849587
-0.963210523,-0.211722419,-0.165526286,0.007533491,0.038335994,0.053835154,0.060354922,0.045600761,-0.080544755,0.213336998,-1.400610139,0.140849587
-0.963210523,-0.211722419,-0.165526286,0.007533491,0.038335994,0.053835154,0.060354922,0.045600761,-0.080544755,0.213336998,-1.400610139,0.140849587
-0.963210523,-0.211722419,-0.165526286,0.007533491,0.038335994,0.053835154,0.060354922,0.045600761,-0.080544755,0.213336998,-1.400610139,0.140849587
-0.962742984,-0.215111747,-0.163868412,0.003052473,-0.008171037,0.044807673,0.04423425,0.005960627,-0.114277519,0.216806259,-1.402202156,0.143371875
-0.962742984,-0.215111747,-0.163868412,0.003052473,-0.008171037,0.044807673,0.04423425,0.005960627,-0.114277519,0.216806259,-1.402202156,0.143371875
-0.962742984,-0.215111747,-0.163868412,0.003052473,-0.008171037,0.044807673,0.04423425,0.005960627,-0.114277519,0.216806259,-1.402202156,0.143371875
-0.962742984,-0.215111747,-0.163868412,0.003052473,-0.008171037,0.044807673,0.04423425,0.005960627,-0.114277519,0.216806259,-1.402202156,0.143371875
-0.962742984,-0.215111747,-0.163868412,0.003052473,-0.008171037,0.044807673,0.04423425,0.005960627,-0.114277519,0.216806259,-1.402202156,0.143371875
-0.962742984,-0.215111747,-0.163868412,0.003052473,-0.008171037,0.044807673,0.04423425,0.005960627,-0.114277519,0.216806259,-1.402202156,0.143371875
-0.962742984,-0.215111747,-0.163868412,0.003052473,-0.008171037,0.044807673,0.04423425,0.005960627,-0.114277519,0.216806259,-1.402202156,0.143371875
-0.962742984,-0.215111747,-0.163868412,0.003052473,-0.008171037,0.044807673,0.04423425,0.005960627,-0.114277519,0.216806259,-1.402202156,0.143371875
-0.962742984,-0.215111747,-0.163868412,0.003052473,-0.008171037,0.044807673,0.04423425,0.005960627,-0.114277519,0.216806259,-1.402202156,0.143371875
-0.962742984,-0.215111747,-0.163868412,0.003052473,-0.008171037,0.044807673,0.04423425,0.005960627,-0.114277519,0.216806259,-1.402202156,0.143371875
-0.962742984,-0.215111747,-0.163868412,0.003052473,-0.008171037,0.044807673,0.04423425,0.005960627,-0.114277519,0.216806259,-1.402202156,0.143371875
-0.961998522,-0.220210969,-0.161449179,0.014422953,0.001765072,0.036636353,0.008519355,-0.021301318,-0.192248106,0.222030737,-1.404519041,0.143763233
-0.961998522,-0.220210969,-0.161449179,0.014422953,0.001765072,0.036636353,0.008519355,-0.021301318,-0.192248106,0.222030737,-1.404519041,0.143763233
-0.961998522,-0.220210969,-0.161449179,0.014422953,0.001765072,0.036636353,0.008519355,-0.021301318,-0.192248106,0.222030737,-1.404519041,0.143763233
-0.961998522,-0.220210969,-0.161449179,0.014422953,0.001765072,0.036636353,0.008519355,-0.021301318,-0.192248106,0.222030737,-1.404519041,0.143763233
-0.961998522,-0.220210969,-0.161449179,0.014422953,0.001765072,0.036636353,0.008519355,-0.021301318,-0.192248106,0.222030737,-1.404519041,0.143763233
-0.961998522,-0.220210969,-0.161449179,0.014422953,0.001765072,0.036636353,0.008519355,-0.021301318,-0.192248106,0.222030737,-1.404519041,0.143763233
-0.961998522,-0.220210969,-0.161449179,0.014422953,0.001765072,0.036636353,0.008519355,-0.021301318,-0.192248106,0.222030737,-1.404519041,0.143763233
-0.961998522,-0.220210969,-0.161449179,0.014422953,0.001765072,0.036636353,0.008519355,-0.021301318,-0.192248106,0.222030737,-1.404519041,0.143763233
-0.961998522,-0.220210969,-0.161449179,0.014422953,0.001765072,0.036636353,0.008519355,-0.021301318,-0.192248106,0.222030737,-1.404519041,0.143763233
-0.961998522,-0.220210969,-0.161449179,0.014422953,0.001765072,0.036636353,0.008519355,-0.021301318,-0.192248106,0.222030737,-1.404519041,0.143763233
-0.961998522,-0.220210969,-0.161449179,0.014422953,0.001765072,0.036636353,0.008519355,-0.021301318,-0.192248106,0.222030737,-1.404519041,0.143763233
-0.961998522,-0.220210969,-0.161449179,0.014422953,0.001765072,0.036636353,0.008519355,-0.021301318,-0.192248106,0.222030737,-1.404519041,0.143763233
-0.961998522,-0.220210969,-0.161449179,0.014422953,0.001765072,0.036636353,0.008519355,-0.021301318,-0.192248106,0.222030737,-1.404519041,0.143763233
-0.961998522,-0.220210969,-0.161449179,0.014422953,0.001765072,0.036636353,0.008519355,-0.021301318,-0.192248106,0.222030737,-1.404519041,0.143763233
-0.961998522,-0.220210969,-0.161449179,0.014422953,0.001765072,0.036636353,0.008519355,-0.021301318,-0.192248106,0.222030737,-1.404519041,0.143763233
-0.960903525,-0.225466043,-0.160715267,0.002249897,-0.033064753,0.028471529,-0.27386862,0.021167943,-0.120004967,0.227421374,-1.405075938,0.137812681
-0.960903525,-0.225466043,-0.160715267,0.002249897,-0.033064753,0.028471529,-0.27386862,0.021167943,-0.120004967,0.227421374,-1.405075938,0.137812681
-0.960903525,-0.225466043,-0.160715267,0.002249897,-0.033064753,0.028471529,-0.27386862,0.021167943,-0.120004967,0.227421374,-1.405075938,0.137812681
-0.960903525,-0.225466043,-0.160715267,0.002249897,-0.033064753,0.028471529,-0.27386862,0.021167943,-0.120004967,0.227421374,-1.405075938,0.137812681
-0.960903525,-0.225466043,-0.160715267,0.002249897,-0.033064753,0.028471529,-0.27386862,0.021167943,-0.120004967,0.227421374,-1.405075938,0.137812681
-0.959854305,-0.227408886,-0.164209709,0.023387074,0.027761772,0.006224215,-0.201843992,0.096963502,-0.098299459,0.229416016,-1.401358876,0.126037266
-0.959854305,-0.227408886,-0.164209709,0.023387074,0.027761772,0.006224215,-0.201843992,0.096963502,-0.098299459,0.229416016,-1.401358876,0.126037266
-0.959854305,-0.227408886,-0.164209709,0.023387074,0.027761772,0.006224215,-0.201843992,0.096963502,-0.098299459,0.229416016,-1.401358876,0.126037266
-0.958245754,-0.229057819,-0.171165064,-0.007655621,-0.034584612,0.008861303,-0.14224413,0.327371627,0.026653286,0.231109656,-1.394037162,0.121259168
-0.958245754,-0.229057819,-0.171165064,-0.007655621,-0.034584612,0.008861303,-0.14224413,0.327371627,0.026653286,0.231109656,-1.394037162,0.121259168
-0.958245754,-0.229057819,-0.171165064,-0.007655621,-0.034584612,0.008861303,-0.14224413,0.327371627,0.026653286,0.231109656,-1.394037162,0.121259168
-0.958245754,-0.229057819,-0.171165064,-0.007655621,-0.034584612,0.008861303,-0.14224413,0.327371627,0.026653286,0.231109656,-1.394037162,0.121259168
-0.958245754,-0.229057819,-0.171165064,-0.007655621,-0.034584612,0.008861303,-0.14224413,0.327371627,0.026653286,0.231109656,-1.394037162,0.121259168
-0.958245754,-0.229057819,-0.171165064,-0.007655621,-0.034584612,0.008861303,-0.14224413,0.327371627,0.026653286,0.231109656,-1.394037162,0.121259168
-0.958245754,-0.229057819,-0.171165064,-0.007655621,-0.034584612,0.008861303,-0.14224413,0.327371627,0.026653286,0.231109656,-1.394037162,0.121259168
-0.958245754,-0.229057819,-0.171165064,-0.007655621,-0.034584612,0.008861303,-0.14224413,0.327371627,0.026653286,0.231109656,-1.394037162,0.121259168
-0.958245754,-0.229057819,-0.171165064,-0.007655621,-0.034584612,0.008861303,-0.14224413,0.327371627,0.026653286,0.231109656,-1.394037162,0.121259168
-0.955655932,-0.226212412,-0.188546255,-0.012427151,0.019241154,0.01977247,-0.229955271,0.514583707,-0.018456079,0.228187529,-1.37600295,0.112844009
-0.955655932,-0.226212412,-0.188546255,-0.012427151,0.019241154,0.01977247,-0.229955271,0.514583707,-0.018456079,0.228187529,-1.37600295,0.112844009
-0.955655932,-0.226212412,-0.188546255,-0.012427151,0.019241154,0.01977247,-0.229955271,0.514583707,-0.018456079,0.228187529,-1.37600295,0.112844009
-0.955655932,-0.226212412,-0.188546255,-0.012427151,0.019241154,0.01977247,-0.229955271,0.514583707,-0.018456079,0.228187529,-1.37600295,0.112844009
-0.955655932,-0.226212412,-0.188546255,-0.012427151,0.019241154,0.01977247,-0.229955271,0.514583707,-0.018456079,0.228187529,-1.37600295,0.112844009
-0.955655932,-0.226212412,-0.188546255,-0.012427151,0.019241154,0.01977247,-0.229955271,0.514583707,-0.018456079,0.228187529,-1.37600295,0.112844009
-0.955655932,-0.226212412,-0.188546255,-0.012427151,0.019241154,0.01977247,-0.229955271,0.514583707,-0.018456079,0.228187529,-1.37600295,0.112844009
-0.955655932,-0.226212412,-0.188546255,-0.012427151,0.019241154,0.01977247,-0.229955271,0.514583707,-0.018456079,0.228187529,-1.37600295,0.112844009
-0.955655932,-0.226212412,-0.188546255,-0.012427151,0.019241154,0.01977247,-0.229955271,0.514583707,-0.018456079,0.228187529,-1.37600295,0.112844009
-0.955655932,-0.226212412,-0.188546255,-0.012427151,0.019241154,0.01977247,-0.229955271,0.514583707,-0.018456079,0.228187529,-1.37600295,0.112844009
-0.955655932,-0.226212412,-0.188546255,-0.012427151,0.019241154,0.01977247,-0.229955271,0.514583707,-0.018456079,0.228187529,-1.37600295,0.112844009
-0.955655932,-0.226212412,-0.188546255,-0.012427151,0.019241154,0.01977247,-0.229955271,0.514583707,-0.018456079,0.228187529,-1.37600295,0.112844009
-0.950383544,-0.227597624,-0.212061718,-0.02387917,-0.02882731,-0.017243922,-0.477199376,0.625846446,-0.117408924,0.22960985,-1.351259855,0.099839575
-0.950383544,-0.227597624,-0.212061718,-0.02387917,-0.02882731,-0.017243922,-0.477199376,0.625846446,-0.117408924,0.22960985,-1.351259855,0.099839575
-0.950383544,-0.227597624,-0.212061718,-0.02387917,-0.02882731,-0.017243922,-0.477199376,0.625846446,-0.117408924,0.22960985,-1.351259855,0.099839575
-0.950383544,-0.227597624,-0.212061718,-0.02387917,-0.02882731,-0.017243922,-0.477199376,0.625846446,-0.117408924,0.22960985,-1.351259855,0.099839575
-0.950383544,-0.227597624,-0.212061718,-0.02387917,-0.02882731,-0.017243922,-0.477199376,0.625846446,-0.117408924,0.22960985,-1.351259855,0.099839575
-0.950383544,-0.227597624,-0.212061718,-0.02387917,-0.02882731,-0.017243922,-0.477199376,0.625846446,-0.117408924,0.22960985,-1.351259855,0.099839575
-0.950383544,-0.227597624,-0.212061718,-0.02387917,-0.02882731,-0.017243922,-0.477199376,0.625846446,-0.117408924,0.22960985,-1.351259855,0.099839575
-0.950383544,-0.227597624,-0.212061718,-0.02387917,-0.02882731,-0.017243922,-0.477199376,0.625846446,-0.117408924,0.22960985,-1.351259855,0.099839575
-0.950383544,-0.227597624,-0.212061718,-0.02387917,-0.02882731,-0.017243922,-0.477199376,0.625846446,-0.117408924,0.22960985,-1.351259855,0.099839575
-0.950383544,-0.227597624,-0.212061718,-0.02387917,-0.02882731,-0.017243922,-0.477199376,0.625846446,-0.117408924,0.22960985,-1.351259855,0.099839575
-0.950383544,-0.227597624,-0.212061718,-0.02387917,-0.02882731,-0.017243922,-0.477199376,0.625846446,-0.117408924,0.22960985,-1.351259855,0.099839575
-0.950383544,-0.227597624,-0.212061718,-0.02387917,-0.02882731,-0.017243922,-0.477199376,0.625846446,-0.117408924,0.22960985,-1.351259855,0.099839575
-0.950383544,-0.227597624,-0.212061718,-0.02387917,-0.02882731,-0.017243922,-0.477199376,0.625846446,-0.117408924,0.22960985,-1.351259855,0.099839575
-0.944295049,-0.227323309,-0.237972111,0.022247732,0.049069092,0.034392834,-0.214117453,0.676555693,-0.088230692,0.229328151,-1.323926485,0.083558861
-0.944295049,-0.227323309,-0.237972111,0.022247732,0.049069092,0.034392834,-0.214117453,0.676555693,-0.088230692,0.229328151,-1.323926485,0.083558861
-0.944295049,-0.227323309,-0.237972111,0.022247732,0.049069092,0.034392834,-0.214117453,0.676555693,-0.088230692,0.229328151,-1.323926485,0.083558861
-0.944295049,-0.227323309,-0.237972111,0.022247732,0.049069092,0.034392834,-0.214117453,0.676555693,-0.088230692,0.229328151,-1.323926485,0.083558861
-0.944295049,-0.227323309,-0.237972111,0.022247732,0.049069092,0.034392834,-0.214117453,0.676555693,-0.088230692,0.229328151,-1.323926485,0.083558861
-0.944295049,-0.227323309,-0.237972111,0.022247732,0.049069092,0.034392834,-0.214117453,0.676555693,-0.088230692,0.229328151,-1.323926485,0.083558861
-0.944295049,-0.227323309,-0.237972111,0.022247732,0.049069092,0.034392834,-0.214117453,0.676555693,-0.088230692,0.229328151,-1.323926485,0.083558861
-0.944295049,-0.227323309,-0.237972111,0.022247732,0.049069092,0.034392834,-0.214117453,0.676555693,-0.088230692,0.229328151,-1.323926485,0.083558861
-0.944295049,-0.227323309,-0.237972111,0.022247732,0.049069092,0.034392834,-0.214117453,0.676555693,-0.088230692,0.229328151,-1.323926485,0.083558861
-0.936665833,-0.231418028,-0.262873739,0.021576643,0.005037591,0.044477999,-0.155109674,0.66859746,-0.21462591,0.233535028,-1.297186509,0.077328886
-0.936665833,-0.231418028,-0.262873739,0.021576643,0.005037591,0.044477999,-0.155109674,0.66859746,-0.21462591,0.233535028,-1.297186509,0.077328886
-0.936665833,-0.231418028,-0.262873739,0.021576643,0.005037591,0.044477999,-0.155109674,0.66859746,-0.21462591,0.233535028,-1.297186509,0.077328886
-0.936665833,-0.231418028,-0.262873739,0.021576643,0.005037591,0.044477999,-0.155109674,0.66859746,-0.21462591,0.233535028,-1.297186509,0.077328886
-0.936665833,-0.231418028,-0.262873739,0.021576643,0.005037591,0.044477999,-0.155109674,0.66859746,-0.21462591,0.233535028,-1.297186509,0.077328886
-0.936665833,-0.231418028,-0.262873739,0.021576643,0.005037591,0.044477999,-0.155109674,0.66859746,-0.21462591,0.233535028,-1.297186509,0.077328886
-0.936665833,-0.231418028,-0.262873739,0.021576643,0.005037591,0.044477999,-0.155109674,0.66859746,-0.21462591,0.233535028,-1.297186509,0.077328886
-0.936665833,-0.231418028,-0.262873739,0.021576643,0.005037591,0.044477999,-0.155109674,0.66859746,-0.21462591,0.233535028,-1.297186509,0.077328886
-0.936665833,-0.231418028,-0.262873739,0.021576643,0.005037591,0.044477999,-0.155109674,0.66859746,-0.21462591,0.233535028,-1.297186509,0.077328886
-0.936665833,-0.231418028,-0.262873739,0.021576643,0.005037591,0.044477999,-0.155109674,0.66859746,-0.21462591,0.233535028,-1.297186509,0.077328886
-0.928779602,-0.237971991,-0.284143716,0.015323162,0.053507432,-0.0214715,-0.158636913,0.450176954,-0.257880002,0.24027733,-1.273905954,0.066745585
-0.928779602,-0.237971991,-0.284143716,0.015323162,0.053507432,-0.0214715,-0.158636913,0.450176954,-0.257880002,0.24027733,-1.273905954,0.066745585
-0.928779602,-0.237971991,-0.284143716,0.015323162,0.053507432,-0.0214715,-0.158636913,0.450176954,-0.257880002,0.24027733,-1.273905954,0.066745585
-0.928779602,-0.237971991,-0.284143716,0.015323162,0.053507432,-0.0214715,-0.158636913,0.450176954,-0.257880002,0.24027733,-1.273905954,0.066745585
-0.928779602,-0.237971991,-0.284143716,0.015323162,0.053507432,-0.0214715,-0.158636913,0.450176954,-0.257880002,0.24027733,-1.273905954,0.066745585
-0.928779602,-0.237971991,-0.284143716,0.015323162,0.053507432,-0.0214715,-0.158636913,0.450176954,-0.257880002,0.24027733,-1.273905954,0.066745585
-0.928779602,-0.237971991,-0.284143716,0.015323162,0.053507432,-0.0214715,-0.158636913,0.450176954,-0.257880002,0.24027733,-1.273905954,0.066745585
-0.928779602,-0.237971991,-0.284143716,0.015323162,0.053507432,-0.0214715,-0.158636913,0.450176954,-0.257880002,0.24027733,-1.273905954,0.066745585
-0.928779602,-0.237971991,-0.284143716,0.015323162,0.053507432,-0.0214715,-0.158636913,0.450176954,-0.257880002,0.24027733,-1.273905954,0.066745585
-0.928779602,-0.237971991,-0.284143716,0.015323162,0.053507432,-0.0214715,-0.158636913,0.450176954,-0.257880002,0.24027733,-1.273905954,0.066745585
-0.928779602,-0.237971991,-0.284143716,0.015323162,0.053507432,-0.0214715,-0.158636913,0.450176954,-0.257880002,0.24027733,-1.273905954,0.066745585
-0.928779602,-0.237971991,-0.284143716,0.015323162,0.053507432,-0.0214715,-0.158636913,0.450176954,-0.257880002,0.24027733,-1.273905954,0.066745585
-0.928779602,-0.237971991,-0.284143716,0.015323162,0.053507432,-0.0214715,-0.158636913,0.450176954,-0.257880002,0.24027733,-1.273905954,0.066745585
-0.928779602,-0.237971991,-0.284143716,0.015323162,0.053507432,-0.0214715,-0.158636913,0.450176954,-0.257880002,0.24027733,-1.273905954,0.066745585
-0.928779602,-0.237971991,-0.284143716,0.015323162,0.053507432,-0.0214715,-0.158636913,0.450176954,-0.257880002,0.24027733,-1.273905954,0.066745585
-0.923148334,-0.24262242,-0.298213512,-0.030102909,-0.017510504,0.002150357,-0.141297832,0.456558526,-0.097194508,0.245068123,-1.258338537,0.062115746
-0.923148334,-0.24262242,-0.298213512,-0.030102909,-0.017510504,0.002150357,-0.141297832,0.456558526,-0.097194508,0.245068123,-1.258338537,0.062115746
-0.923148334,-0.24262242,-0.298213512,-0.030102909,-0.017510504,0.002150357,-0.141297832,0.456558526,-0.097194508,0.245068123,-1.258338537,0.062115746
-0.923148334,-0.24262242,-0.298213512,-0.030102909,-0.017510504,0.002150357,-0.141297832,0.456558526,-0.097194508,0.245068123,-1.258338537,0.062115746
-0.923148334,-0.24262242,-0.298213512,-0.030102909,-0.017510504,0.002150357,-0.141297832,0.456558526,-0.097194508,0.245068123,-1.258338537,0.062115746
-0.923148334,-0.24262242,-0.298213512,-0.030102909,-0.017510504,0.002150357,-0.141297832,0.456558526,-0.097194508,0.245068123,-1.258338537,0.062115746
-0.923148334,-0.24262242,-0.298213512,-0.030102909,-0.017510504,0.002150357,-0.141297832,0.456558526,-0.097194508,0.245068123,-1.258338537,0.062115746
-0.923148334,-0.24262242,-0.298213512,-0.030102909,-0.017510504,0.002150357,-0.141297832,0.456558526,-0.097194508,0.245068123,-1.258338537,0.062115746
-0.923148334,-0.24262242,-0.298213512,-0.030102909,-0.017510504,0.002150357,-0.141297832,0.456558526,-0.097194508,0.245068123,-1.258338537,0.062115746
-0.923148334,-0.24262242,-0.298213512,-0.030102909,-0.017510504,0.002150357,-0.141297832,0.456558526,-0.097194508,0.245068123,-1.258338537,0.062115746
-0.923148334,-0.24262242,-0.298213512,-0.030102909,-0.017510504,0.002150357,-0.141297832,0.456558526,-0.097194508,0.245068123,-1.258338537,0.062115746
-0.923148334,-0.24262242,-0.298213512,-0.030102909,-0.017510504,0.002150357,-0.141297832,0.456558526,-0.097194508,0.245068123,-1.258338537,0.062115746
-0.916971982,-0.244636178,-0.315143466,0.005834937,0.047918782,0.008582175,0.04272851,0.440681279,-0.208499044,0.247144459,-1.239764276,0.055909385
-0.916971982,-0.244636178,-0.315143466,0.005834937,0.047918782,0.008582175,0.04272851,0.440681279,-0.208499044,0.247144459,-1.239764276,0.055909385
-0.916971982,-0.244636178,-0.315143466,0.005834937,0.047918782,0.008582175,0.04272851,0.440681279,-0.208499044,0.247144459,-1.239764276,0.055909385
-0.916971982,-0.244636178,-0.315143466,0.005834937,0.047918782,0.008582175,0.04272851,0.440681279,-0.208499044,0.247144459,-1.239764276,0.055909385
-0.916971982,-0.244636178,-0.315143466,0.005834937,0.047918782,0.008582175,0.04272851,0.440681279,-0.208499044,0.247144459,-1.239764276,0.055909385
-0.916971982,-0.244636178,-0.315143466,0.005834937,0.047918782,0.008582175,0.04272851,0.440681279,-0.208499044,0.247144459,-1.239764276,0.055909385
-0.916971982,-0.244636178,-0.315143466,0.005834937,0.047918782,0.008582175,0.04272851,0.440681279,-0.208499044,0.247144459,-1.239764276,0.055909385
-0.916971982,-0.244636178,-0.315143466,0.005834937,0.047918782,0.008582175,0.04272851,0.440681279,-0.208499044,0.247144459,-1.239764276,0.055909385
-0.916971982,-0.244636178,-0.315143466,0.005834937,0.047918782,0.008582175,0.04272851,0.440681279,-0.208499044,0.247144459,-1.239764276,0.055909385
-0.916971982,-0.244636178,-0.315143466,0.005834937,0.047918782,0.008582175,0.04272851,0.440681279,-0.208499044,0.247144459,-1.239764276,0.055909385
-0.916971982,-0.244636178,-0.315143466,0.005834937,0.047918782,0.008582175,0.04272851,0.440681279,-0.208499044,0.247144459,-1.239764276,0.055909385
-0.910311162,-0.25482741,-0.326184779,-0.006288707,0.015324235,-0.051344991,0.101776659,0.307645351,-0.277688444,0.257669212,-1.226726768,0.058178704
-0.910311162,-0.25482741,-0.326184779,-0.006288707,0.015324235,-0.051344991,0.101776659,0.307645351,-0.277688444,0.257669212,-1.226726768,0.058178704
-0.910311162,-0.25482741,-0.326184779,-0.006288707,0.015324235,-0.051344991,0.101776659,0.307645351,-0.277688444,0.257669212,-1.226726768,0.058178704
-0.905037344,-0.260469824,-0.336248279,-0.001400411,-0.009840935,-0.054083467,-0.258079171,0.255121619,-0.161354855,0.263508788,-1.215071541,0.05136206
-0.905037344,-0.260469824,-0.336248279,-0.001400411,-0.009840935,-0.054083467,-0.258079171,0.255121619,-0.161354855,0.263508788,-1.215071541,0.05136206
-0.905037344,-0.260469824,-0.336248279,-0.001400411,-0.009840935,-0.054083467,-0.258079171,0.255121619,-0.161354855,0.263508788,-1.215071541,0.05136206
-0.905037344,-0.260469824,-0.336248279,-0.001400411,-0.009840935,-0.054083467,-0.258079171,0.255121619,-0.161354855,0.263508788,-1.215071541,0.05136206
-0.905037344,-0.260469824,-0.336248279,-0.001400411,-0.009840935,-0.054083467,-0.258079171,0.255121619,-0.161354855,0.263508788,-1.215071541,0.05136206
-0.905037344,-0.260469824,-0.336248279,-0.001400411,-0.009840935,-0.054083467,-0.258079171,0.255121619,-0.161354855,0.263508788,-1.215071541,0.05136206
-0.899548948,-0.263290912,-0.348553568,-0.007468641,0.037398487,-0.063338876,-0.024984488,0.279399008,-0.251165003,0.266431895,-1.201132972,0.04167729
-0.899548948,-0.263290912,-0.348553568,-0.007468641,0.037398487,-0.063338876,-0.024984488,0.279399008,-0.251165003,0.266431895,-1.201132972,0.04167729
-0.899548948,-0.263290912,-0.348553568,-0.007468641,0.037398487,-0.063338876,-0.024984488,0.279399008,-0.251165003,0.266431895,-1.201132972,0.04167729
-0.893186986,-0.274010062,-0.356560349,0.016061485,0.024725884,-0.05965054,0.235279247,0.141042829,-0.180995569,0.277560227,-1.190979715,0.041266171
-0.893186986,-0.274010062,-0.356560349,0.016061485,0.024725884,-0.05965054,0.235279247,0.141042829,-0.180995569,0.277560227,-1.190979715,0.041266171
-0.893186986,-0.274010062,-0.356560349,0.016061485,0.024725884,-0.05965054,0.235279247,0.141042829,-0.180995569,0.277560227,-1.190979715,0.041266171
-0.89163661,-0.279829323,-0.355920672,0.058639646,0.061703563,0.006726384,0.228861377,-0.044705141,-0.058039442,0.283616325,-1.19099978,0.05021095
-0.89163661,-0.279829323,-0.355920672,0.058639646,0.061703563,0.006726384,0.228861377,-0.044705141,-0.058039442,0.283616325,-1.19099978,0.05021095
-0.89163661,-0.279829323,-0.355920672,0.058639646,0.061703563,0.006726384,0.228861377,-0.044705141,-0.058039442,0.283616325,-1.19099978,0.05021095
-0.89163661,-0.279829323,-0.355920672,0.058639646,0.061703563,0.006726384,0.228861377,-0.044705141,-0.058039442,0.283616325,-1.19099978,0.05021095
-0.89163661,-0.279829323,-0.355920672,0.058639646,0.061703563,0.006726384,0.228861377,-0.044705141,-0.058039442,0.283616325,-1.19099978,0.05021095
-0.89163661,-0.279829323,-0.355920672,0.058639646,0.061703563,0.006726384,0.228861377,-0.044705141,-0.058039442,0.283616325,-1.19099978,0.05021095
-0.890793502,-0.280354708,-0.357614487,0.042034209,0.014026433,-0.00645709,0.001774394,0.007878526,-0.037873082,0.284163604,-1.189035324,0.051228302
-0.890793502,-0.280354708,-0.357614487,0.042034209,0.014026433,-0.00645709,0.001774394,0.007878526,-0.037873082,0.284163604,-1.189035324,0.051228302
-0.890793502,-0.280354708,-0.357614487,0.042034209,0.014026433,-0.00645709,0.001774394,0.007878526,-0.037873082,0.284163604,-1.189035324,0.051228302
-0.890793502,-0.280354708,-0.357614487,0.042034209,0.014026433,-0.00645709,0.001774394,0.007878526,-0.037873082,0.284163604,-1.189035324,0.051228302
-0.890793502,-0.280354708,-0.357614487,0.042034209,0.014026433,-0.00645709,0.001774394,0.007878526,-0.037873082,0.284163604,-1.189035324,0.051228302
-0.890793502,-0.280354708,-0.357614487,0.042034209,0.014026433,-0.00645709,0.001774394,0.007878526,-0.037873082,0.284163604,-1.189035324,0.051228302
-0.890793502,-0.280354708,-0.357614487,0.042034209,0.014026433,-0.00645709,0.001774394,0.007878526,-0.037873082,0.284163604,-1.189035324,0.051228302
-0.890793502,-0.280354708,-0.357614487,0.042034209,0.014026433,-0.00645709,0.001774394,0.007878526,-0.037873082,0.284163604,-1.189035324,0.051228302
-0.890793502,-0.280354708,-0.357614487,0.042034209,0.014026433,-0.00645709,0.001774394,0.007878526,-0.037873082,0.284163604,-1.189035324,0.051228302
-0.890793502,-0.280354708,-0.357614487,0.042034209,0.014026433,-0.00645709,0.001774394,0.007878526,-0.037873082,0.284163604,-1.189035324,0.051228302
-0.890793502,-0.280354708,-0.357614487,0.042034209,0.014026433,-0.00645709,0.001774394,0.007878526,-0.037873082,0.284163604,-1.189035324,0.051228302
-0.890793502,-0.280354708,-0.357614487,0.042034209,0.014026433,-0.00645709,0.001774394,0.007878526,-0.037873082,0.284163604,-1.189035324,0.051228302
-0.890902102,-0.279065222,-0.358351707,-0.017747521,-0.048237026,-0.079893231,0.084134944,0.026989395,0.017040608,0.282820533,-1.188364982,0.053134197
-0.890902102,-0.279065222,-0.358351707,-0.017747521,-0.048237026,-0.079893231,0.084134944,0.026989395,0.017040608,0.282820533,-1.188364982,0.053134197
-0.890902102,-0.279065222,-0.358351707,-0.017747521,-0.048237026,-0.079893231,0.084134944,0.026989395,0.017040608,0.282820533,-1.188364982,0.053134197
-0.890902102,-0.279065222,-0.358351707,-0.017747521,-0.048237026,-0.079893231,0.084134944,0.026989395,0.017040608,0.282820533,-1.188364982,0.053134197
-0.890902102,-0.279065222,-0.358351707,-0.017747521,-0.048237026,-0.079893231,0.084134944,0.026989395,0.017040608,0.282820533,-1.188364982,0.053134197
-0.890902102,-0.279065222,-0.358351707,-0.017747521,-0.048237026,-0.079893231,0.084134944,0.026989395,0.017040608,0.282820533,-1.188364982,0.053134197
-0.890902102,-0.279065222,-0.358351707,-0.017747521,-0.048237026,-0.079893231,0.084134944,0.026989395,0.017040608,0.282820533,-1.188364982,0.053134197
-0.890902102,-0.279065222,-0.358351707,-0.017747521,-0.048237026,-0.079893231,0.084134944,0.026989395,0.017040608,0.282820533,-1.188364982,0.053134197
-0.890902102,-0.279065222,-0.358351707,-0.017747521,-0.048237026,-0.079893231,0.084134944,0.026989395,0.017040608,0.282820533,-1.188364982,0.053134197
-0.890902102,-0.279065222,-0.358351707,-0.017747521,-0.048237026,-0.079893231,0.084134944,0.026989395,0.017040608,0.282820533,-1.188364982,0.053134197
-0.890668988,-0.278279781,-0.359539986,0.022760212,-0.076976597,-0.037979126,-0.056481738,0.011946637,-0.005347414,0.282002684,-1.187126661,0.053656812
-0.890668988,-0.278279781,-0.359539986,0.022760212,-0.076976597,-0.037979126,-0.056481738,0.011946637,-0.005347414,0.282002684,-1.187126661,0.053656812
-0.890668988,-0.278279781,-0.359539986,0.022760212,-0.076976597,-0.037979126,-0.056481738,0.011946637,-0.005347414,0.282002684,-1.187126661,0.053656812
-0.890668988,-0.278279781,-0.359539986,0.022760212,-0.076976597,-0.037979126,-0.056481738,0.011946637,-0.005347414,0.282002684,-1.187126661,0.053656812
-0.890668988,-0.278279781,-0.359539986,0.022760212,-0.076976597,-0.037979126,-0.056481738,0.011946637,-0.005347414,0.282002684,-1.187126661,0.053656812
-0.890668988,-0.278279781,-0.359539986,0.022760212,-0.076976597,-0.037979126,-0.056481738,0.011946637,-0.005347414,0.282002684,-1.187126661,0.053656812
-0.890668988,-0.278279781,-0.359539986,0.022760212,-0.076976597,-0.037979126,-0.056481738,0.011946637,-0.005347414,0.282002684,-1.187126661,0.053656812
-0.890668988,-0.278279781,-0.359539986,0.022760212,-0.076976597,-0.037979126,-0.056481738,0.011946637,-0.005347414,0.282002684,-1.187126661,0.053656812
-0.890668988,-0.278279781,-0.359539986,0.022760212,-0.076976597,-0.037979126,-0.056481738,0.011946637,-0.005347414,0.282002684,-1.187126661,0.053656812
-0.890668988,-0.278279781,-0.359539986,0.022760212,-0.076976597,-0.037979126,-0.056481738,0.011946637,-0.005347414,0.282002684,-1.187126661,0.053656812
-0.890668988,-0.278279781,-0.359539986,0.022760212,-0.076976597,-0.037979126,-0.056481738,0.011946637,-0.005347414,0.282002684,-1.187126661,0.053656812
-0.889578104,-0.274792999,-0.364882767,0.110887647,0.105770171,0.161714733,0.098481469,0.051018756,-0.111328498,0.278374403,-1.18154922,0.046915916
-0.889578104,-0.274792999,-0.364882767,0.110887647,0.105770171,0.161714733,0.098481469,0.051018756,-0.111328498,0.278374403,-1.18154922,0.046915916
-0.889578104,-0.274792999,-0.364882767,0.110887647,0.105770171,0.161714733,0.098481469,0.051018756,-0.111328498,0.278374403,-1.18154922,0.046915916
-0.889578104,-0.274792999,-0.364882767,0.110887647,0.105770171,0.161714733,0.098481469,0.051018756,-0.111328498,0.278374403,-1.18154922,0.046915916
-0.889578104,-0.274792999,-0.364882767,0.110887647,0.105770171,0.161714733,0.098481469,0.051018756,-0.111328498,0.278374403,-1.18154922,0.046915916
-0.889578104,-0.274792999,-0.364882767,0.110887647,0.105770171,0.161714733,0.098481469,0.051018756,-0.111328498,0.278374403,-1.18154922,0.046915916
-0.889578104,-0.274792999,-0.364882767,0.110887647,0.105770171,0.161714733,0.098481469,0.051018756,-0.111328498,0.278374403,-1.18154922,0.046915916
-0.889578104,-0.274792999,-0.364882767,0.110887647,0.105770171,0.161714733,0.098481469,0.051018756,-0.111328498,0.278374403,-1.18154922,0.046915916
-0.889578104,-0.274792999,-0.364882767,0.110887647,0.105770171,0.161714733,0.098481469,0.051018756,-0.111328498,0.278374403,-1.18154922,0.046915916
-0.889578104,-0.274792999,-0.364882767,0.110887647,0.105770171,0.161714733,0.098481469,0.051018756,-0.111328498,0.278374403,-1.18154922,0.046915916
-0.889578104,-0.274792999,-0.364882767,0.110887647,0.105770171,0.161714733,0.098481469,0.051018756,-0.111328498,0.278374403,-1.18154922,0.046915916
-0.889578104,-0.274792999,-0.364882767,0.110887647,0.105770171,0.161714733,0.098481469,0.051018756,-0.111328498,0.278374403,-1.18154922,0.046915916
-0.889578104,-0.274792999,-0.364882767,0.110887647,0.105770171,0.161714733,0.098481469,0.051018756,-0.111328498,0.278374403,-1.18154922,0.046915916
-0.884898186,-0.279717356,-0.372442186,-0.113137543,-0.00463146,-0.002860188,0.162369594,0.274224043,-0.067689352,0.283499704,-1.172414531,0.046472453
-0.884898186,-0.279717356,-0.372442186,-0.113137543,-0.00463146,-0.002860188,0.162369594,0.274224043,-0.067689352,0.283499704,-1.172414531,0.046472453
-0.884898186,-0.279717356,-0.372442186,-0.113137543,-0.00463146,-0.002860188,0.162369594,0.274224043,-0.067689352,0.283499704,-1.172414531,0.046472453
-0.884898186,-0.279717356,-0.372442186,-0.113137543,-0.00463146,-0.002860188,0.162369594,0.274224043,-0.067689352,0.283499704,-1.172414531,0.046472453
-0.884898186,-0.279717356,-0.372442186,-0.113137543,-0.00463146,-0.002860188,0.162369594,0.274224043,-0.067689352,0.283499704,-1.172414531,0.046472453
-0.884898186,-0.279717356,-0.372442186,-0.113137543,-0.00463146,-0.002860188,0.162369594,0.274224043,-0.067689352,0.283499704,-1.172414531,0.046472453
-0.884898186,-0.279717356,-0.372442186,-0.113137543,-0.00463146,-0.002860188,0.162369594,0.274224043,-0.067689352,0.283499704,-1.172414531,0.046472453
-0.884898186,-0.279717356,-0.372442186,-0.113137543,-0.00463146,-0.002860188,0.162369594,0.274224043,-0.067689352,0.283499704,-1.172414531,0.046472453
-0.884898186,-0.279717356,-0.372442186,-0.113137543,-0.00463146,-0.002860188,0.162369594,0.274224043,-0.067689352,0.283499704,-1.172414531,0.046472453
-0.884898186,-0.279717356,-0.372442186,-0.113137543,-0.00463146,-0.002860188,0.162369594,0.274224043,-0.067689352,0.283499704,-1.172414531,0.046472453
-0.884898186,-0.279717356,-0.372442186,-0.113137543,-0.00463146,-0.002860188,0.162369594,0.274224043,-0.067689352,0.283499704,-1.172414531,0.046472453
-0.884898186,-0.279717356,-0.372442186,-0.113137543,-0.00463146,-0.002860188,0.162369594,0.274224043,-0.067689352,0.283499704,-1.172414531,0.046472453
-0.885546029,-0.283965498,-0.367656946,0.154539108,0.046918929,-0.027207196,0.29401353,0.044382453,-0.110305838,0.287927355,-1.177276542,0.059279489
-0.885546029,-0.283965498,-0.367656946,0.154539108,0.046918929,-0.027207196,0.29401353,0.044382453,-0.110305838,0.287927355,-1.177276542,0.059279489
-0.885546029,-0.283965498,-0.367656946,0.154539108,0.046918929,-0.027207196,0.29401353,0.044382453,-0.110305838,0.287927355,-1.177276542,0.059279489
-0.885546029,-0.283965498,-0.367656946,0.154539108,0.046918929,-0.027207196,0.29401353,0.044382453,-0.110305838,0.287927355,-1.177276542,0.059279489
-0.885546029,-0.283965498,-0.367656946,0.154539108,0.046918929,-0.027207196,0.29401353,0.044382453,-0.110305838,0.287927355,-1.177276542,0.059279489
-0.885546029,-0.283965498,-0.367656946,0.154539108,0.046918929,-0.027207196,0.29401353,0.044382453,-0.110305838,0.287927355,-1.177276542,0.059279489
-0.885546029,-0.283965498,-0.367656946,0.154539108,0.046918929,-0.027207196,0.29401353,0.044382453,-0.110305838,0.287927355,-1.177276542,0.059279489
-0.885546029,-0.283965498,-0.367656946,0.154539108,0.046918929,-0.027207196,0.29401353,0.044382453,-0.110305838,0.287927355,-1.177276542,0.059279489
-0.885546029,-0.283965498,-0.367656946,0.154539108,0.046918929,-0.027207196,0.29401353,0.044382453,-0.110305838,0.287927355,-1.177276542,0.059279489
-0.885546029,-0.283965498,-0.367656946,0.154539108,0.046918929,-0.027207196,0.29401353,0.044382453,-0.110305838,0.287927355,-1.177276542,0.059279489
-0.885546029,-0.283965498,-0.367656946,0.154539108,0.046918929,-0.027207196,0.29401353,0.044382453,-0.110305838,0.287927355,-1.177276542,0.059279489
-0.882839561,-0.284937352,-0.373369575,0.047645688,-0.030310541,-0.05964148,-0.092558891,0.064286619,0.000389141,0.28894106,-1.170689674,0.061605595
-0.882839561,-0.284937352,-0.373369575,0.047645688,-0.030310541,-0.05964148,-0.092558891,0.064286619,0.000389141,0.28894106,-1.170689674,0.061605595