gravityX,gravityY,gravityZ,accelX,accelY,accelZ,rotRateX,rotRatY,rotRateZ,attPitch,attRoll,attYaw
-0.930566728,-0.326974392,-0.164721057,0.009729445,0.029122859,-0.007413447,-0.209057271,0.06536188,0.005742628,0.333100202,-1.395599555,0.280082143
-0.930566728,-0.326974392,-0.164721057,0.009729445,0.029122859,-0.007413447,-0.209057271,0.06536188,0.005742628,0.333100202,-1.395599555,0.280082143
-0.930566728,-0.326974392,-0.164721057,0.009729445,0.029122859,-0.007413447,-0.209057271,0.06536188,0.005742628,0.333100202,-1.395599555,0.280082143
-0.929970741,-0.326633781,-0.168714717,-0.001960099,0.063282222,0.019590795,-0.026581241,0.069331333,-0.002888837,0.332739792,-1.391328893,0.276064693
-0.929970741,-0.326633781,-0.168714717,-0.001960099,0.063282222,0.019590795,-0.026581241,0.069331333,-0.002888837,0.332739792,-1.391328893,0.276064693
-0.929970741,-0.326633781,-0.168714717,-0.001960099,0.063282222,0.019590795,-0.026581241,0.069331333,-0.002888837,0.332739792,-1.391328893,0.276064693
-0.929970741,-0.326633781,-0.168714717,-0.001960099,0.063282222,0.019590795,-0.026581241,0.069331333,-0.002888837,0.332739792,-1.391328893,0.276064693
-0.929970741,-0.326633781,-0.168714717,-0.001960099,0.063282222,0.019590795,-0.026581241,0.069331333,-0.002888837,0.332739792,-1.391328893,0.276064693
-0.929970741,-0.326633781,-0.168714717,-0.001960099,0.063282222,0.019590795,-0.026581241,0.069331333,-0.002888837,0.332739792,-1.391328893,0.276064693
-0.929970741,-0.326633781,-0.168714717,-0.001960099,0.063282222,0.019590795,-0.026581241,0.069331333,-0.002888837,0.332739792,-1.391328893,0.276064693
-0.929970741,-0.326633781,-0.168714717,-0.001960099,0.063282222,0.019590795,-0.026581241,0.069331333,-0.002888837,0.332739792,-1.391328893,0.276064693
-0.929970741,-0.326633781,-0.168714717,-0.001960099,0.063282222,0.019590795,-0.026581241,0.069331333,-0.002888837,0.332739792,-1.391328893,0.276064693
-0.929970741,-0.326633781,-0.168714717,-0.001960099,0.063282222,0.019590795,-0.026581241,0.069331333,-0.002888837,0.332739792,-1.391328893,0.276064693
-0.929970741,-0.326633781,-0.168714717,-0.001960099,0.063282222,0.019590795,-0.026581241,0.069331333,-0.002888837,0.332739792,-1.391328893,0.276064693
-0.929970741,-0.326633781,-0.168714717,-0.001960099,0.063282222,0.019590795,-0.026581241,0.069331333,-0.002888837,0.332739792,-1.391328893,0.276064693
-0.929970741,-0.326633781,-0.168714717,-0.001960099,0.063282222,0.019590795,-0.026581241,0.069331333,-0.002888837,0.332739792,-1.391328893,0.276064693
-0.929970741,-0.326633781,-0.168714717,-0.001960099,0.063282222,0.019590795,-0.026581241,0.069331333,-0.002888837,0.332739792,-1.391328893,0.276064693
-0.929970741,-0.326633781,-0.168714717,-0.001960099,0.063282222,0.019590795,-0.026581241,0.069331333,-0.002888837,0.332739792,-1.391328893,0.276064693
-0.929970741,-0.326633781,-0.168714717,-0.001960099,0.063282222,0.019590795,-0.026581241,0.069331333,-0.002888837,0.332739792,-1.391328893,0.276064693
-0.929970741,-0.326633781,-0.168714717,-0.001960099,0.063282222,0.019590795,-0.026581241,0.069331333,-0.002888837,0.332739792,-1.391328893,0.276064693
-0.929970741,-0.326633781,-0.168714717,-0.001960099,0.063282222,0.019590795,-0.026581241,0.069331333,-0.002888837,0.332739792,-1.391328893,0.276064693
-0.929970741,-0.326633781,-0.168714717,-0.001960099,0.063282222,0.019590795,-0.026581241,0.069331333,-0.002888837,0.332739792,-1.391328893,0.276064693
-0.929970741,-0.326633781,-0.168714717,-0.001960099,0.063282222,0.019590795,-0.026581241,0.069331333,-0.002888837,0.332739792,-1.391328893,0.276064693
-0.929970741,-0.326633781,-0.168714717,-0.001960099,0.063282222,0.019590795,-0.026581241,0.069331333,-0.002888837,0.332739792,-1.391328893,0.276064693
-0.929640234,-0.326790839,-0.170225739,0.011427045,0.048851937,0.001219571,0.1119662,0.040635094,-0.002607821,0.332905982,-1.389693336,0.276878641
-0.929640234,-0.326790839,-0.170225739,0.011427045,0.048851937,0.001219571,0.1119662,0.040635094,-0.002607821,0.332905982,-1.389693336,0.276878641
-0.929640234,-0.326790839,-0.170225739,0.011427045,0.048851937,0.001219571,0.1119662,0.040635094,-0.002607821,0.332905982,-1.389693336,0.276878641
-0.929640234,-0.326790839,-0.170225739,0.011427045,0.048851937,0.001219571,0.1119662,0.040635094,-0.002607821,0.332905982,-1.389693336,0.276878641
-0.929640234,-0.326790839,-0.170225739,0.011427045,0.048851937,0.001219571,0.1119662,0.040635094,-0.002607821,0.332905982,-1.389693336,0.276878641
-0.929640234,-0.326790839,-0.170225739,0.011427045,0.048851937,0.001219571,0.1119662,0.040635094,-0.002607821,0.332905982,-1.389693336,0.276878641
-0.929640234,-0.326790839,-0.170225739,0.011427045,0.048851937,0.001219571,0.1119662,0.040635094,-0.002607821,0.332905982,-1.389693336,0.276878641
-0.929640234,-0.326790839,-0.170225739,0.011427045,0.048851937,0.001219571,0.1119662,0.040635094,-0.002607821,0.332905982,-1.389693336,0.276878641
-0.929640234,-0.326790839,-0.170225739,0.011427045,0.048851937,0.001219571,0.1119662,0.040635094,-0.002607821,0.332905982,-1.389693336,0.276878641
-0.929640234,-0.326790839,-0.170225739,0.011427045,0.048851937,0.001219571,0.1119662,0.040635094,-0.002607821,0.332905982,-1.389693336,0.276878641
-0.929640234,-0.326790839,-0.170225739,0.011427045,0.048851937,0.001219571,0.1119662,0.040635094,-0.002607821,0.332905982,-1.389693336,0.276878641
-0.929640234,-0.326790839,-0.170225739,0.011427045,0.048851937,0.001219571,0.1119662,0.040635094,-0.002607821,0.332905982,-1.389693336,0.276878641
-0.929640234,-0.326790839,-0.170225739,0.011427045,0.048851937,0.001219571,0.1119662,0.040635094,-0.002607821,0.332905982,-1.389693336,0.276878641
-0.929640234,-0.326790839,-0.170225739,0.011427045,0.048851937,0.001219571,0.1119662,0.040635094,-0.002607821,0.332905982,-1.389693336,0.276878641
-0.929640234,-0.326790839,-0.170225739,0.011427045,0.048851937,0.001219571,0.1119662,0.040635094,-0.002607821,0.332905982,-1.389693336,0.276878641
-0.929640234,-0.326790839,-0.170225739,0.011427045,0.048851937,0.001219571,0.1119662,0.040635094,-0.002607821,0.332905982,-1.389693336,0.276878641
-0.929640234,-0.326790839,-0.170225739,0.011427045,0.048851937,0.001219571,0.1119662,0.040635094,-0.002607821,0.332905982,-1.389693336,0.276878641
-0.929640234,-0.326790839,-0.170225739,0.011427045,0.048851937,0.001219571,0.1119662,0.040635094,-0.002607821,0.332905982,-1.389693336,0.276878641
-0.929624379,-0.327131242,-0.169657379,-0.016573787,0.007367849,-0.00175935,0.129544452,0.042217653,0.042930368,0.333266186,-1.390281935,0.282841548
-0.929624379,-0.327131242,-0.169657379,-0.016573787,0.007367849,-0.00175935,0.129544452,0.042217653,0.042930368,0.333266186,-1.390281935,0.282841548
-0.929624379,-0.327131242,-0.169657379,-0.016573787,0.007367849,-0.00175935,0.129544452,0.042217653,0.042930368,0.333266186,-1.390281935,0.282841548
-0.929624379,-0.327131242,-0.169657379,-0.016573787,0.007367849,-0.00175935,0.129544452,0.042217653,0.042930368,0.333266186,-1.390281935,0.282841548
-0.929624379,-0.327131242,-0.169657379,-0.016573787,0.007367849,-0.00175935,0.129544452,0.042217653,0.042930368,0.333266186,-1.390281935,0.282841548
-0.929624379,-0.327131242,-0.169657379,-0.016573787,0.007367849,-0.00175935,0.129544452,0.042217653,0.042930368,0.333266186,-1.390281935,0.282841548
-0.929624379,-0.327131242,-0.169657379,-0.016573787,0.007367849,-0.00175935,0.129544452,0.042217653,0.042930368,0.333266186,-1.390281935,0.282841548
-0.929624379,-0.327131242,-0.169657379,-0.016573787,0.007367849,-0.00175935,0.129544452,0.042217653,0.042930368,0.333266186,-1.390281935,0.282841548
-0.929624379,-0.327131242,-0.169657379,-0.016573787,0.007367849,-0.00175935,0.129544452,0.042217653,0.042930368,0.333266186,-1.390281935,0.282841548
-0.929624379,-0.327131242,-0.169657379,-0.016573787,0.007367849,-0.00175935,0.129544452,0.042217653,0.042930368,0.333266186,-1.390281935,0.282841548
-0.929624379,-0.327131242,-0.169657379,-0.016573787,0.007367849,-0.00175935,0.129544452,0.042217653,0.042930368,0.333266186,-1.390281935,0.282841548
-0.929624379,-0.327131242,-0.169657379,-0.016573787,0.007367849,-0.00175935,0.129544452,0.042217653,0.042930368,0.333266186,-1.390281935,0.282841548
-0.929624379,-0.327131242,-0.169657379,-0.016573787,0.007367849,-0.00175935,0.129544452,0.042217653,0.042930368,0.333266186,-1.390281935,0.282841548
-0.929624379,-0.327131242,-0.169657379,-0.016573787,0.007367849,-0.00175935,0.129544452,0.042217653,0.042930368,0.333266186,-1.390281935,0.282841548
-0.929624379,-0.327131242,-0.169657379,-0.016573787,0.007367849,-0.00175935,0.129544452,0.042217653,0.042930368,0.333266186,-1.390281935,0.282841548
-0.939055324,-0.296792865,-0.17346178,0.017087519,-0.011374056,0.000611246,0.123618551,0.029706944,0.059054323,0.301332429,-1.388135837,0.287539151
-0.939055324,-0.296792865,-0.17346178,0.017087519,-0.011374056,0.000611246,0.123618551,0.029706944,0.059054323,0.301332429,-1.388135837,0.287539151
-0.939055324,-0.296792865,-0.17346178,0.017087519,-0.011374056,0.000611246,0.123618551,0.029706944,0.059054323,0.301332429,-1.388135837,0.287539151
-0.939055324,-0.296792865,-0.17346178,0.017087519,-0.011374056,0.000611246,0.123618551,0.029706944,0.059054323,0.301332429,-1.388135837,0.287539151
-0.939055324,-0.296792865,-0.17346178,0.017087519,-0.011374056,0.000611246,0.123618551,0.029706944,0.059054323,0.301332429,-1.388135837,0.287539151
-0.939055324,-0.296792865,-0.17346178,0.017087519,-0.011374056,0.000611246,0.123618551,0.029706944,0.059054323,0.301332429,-1.388135837,0.287539151
-0.938575566,-0.297820389,-0.174295217,0.026326895,-0.019486755,-0.018513143,0.118921377,-0.03523799,0.060170077,0.302408623,-1.387186028,0.291997571
-0.938575566,-0.297820389,-0.174295217,0.026326895,-0.019486755,-0.018513143,0.118921377,-0.03523799,0.060170077,0.302408623,-1.387186028,0.291997571
-0.938575566,-0.297820389,-0.174295217,0.026326895,-0.019486755,-0.018513143,0.118921377,-0.03523799,0.060170077,0.302408623,-1.387186028,0.291997571
-0.936693072,-0.303019792,-0.175456658,0.012787104,-0.012456179,-0.012072504,0.269096822,0.036065049,0.166387007,0.307859832,-1.385627092,0.309879393
-0.936693072,-0.303019792,-0.175456658,0.012787104,-0.012456179,-0.012072504,0.269096822,0.036065049,0.166387007,0.307859832,-1.385627092,0.309879393
-0.936693072,-0.303019792,-0.175456658,0.012787104,-0.012456179,-0.012072504,0.269096822,0.036065049,0.166387007,0.307859832,-1.385627092,0.309879393
-0.93818289,-0.299127609,-0.174170777,0.015940249,-0.013693273,-0.001777112,0.150687128,-0.009140199,0.160051823,0.303778265,-1.387239112,0.319996671
-0.93818289,-0.299127609,-0.174170777,0.015940249,-0.013693273,-0.001777112,0.150687128,-0.009140199,0.160051823,0.303778265,-1.387239112,0.319996671
-0.93818289,-0.299127609,-0.174170777,0.015940249,-0.013693273,-0.001777112,0.150687128,-0.009140199,0.160051823,0.303778265,-1.387239112,0.319996671
-0.955740988,-0.259913296,-0.137855157,-0.017756522,-0.005254447,-0.001837194,-0.282829463,-0.214190155,0.259209394,0.262932424,-1.427545286,0.327328225
-0.955740988,-0.259913296,-0.137855157,-0.017756522,-0.005254447,-0.001837194,-0.282829463,-0.214190155,0.259209394,0.262932424,-1.427545286,0.327328225
-0.955740988,-0.259913296,-0.137855157,-0.017756522,-0.005254447,-0.001837194,-0.282829463,-0.214190155,0.259209394,0.262932424,-1.427545286,0.327328225
-0.955740988,-0.259913296,-0.137855157,-0.017756522,-0.005254447,-0.001837194,-0.282829463,-0.214190155,0.259209394,0.262932424,-1.427545286,0.327328225
-0.955740988,-0.259913296,-0.137855157,-0.017756522,-0.005254447,-0.001837194,-0.282829463,-0.214190155,0.259209394,0.262932424,-1.427545286,0.327328225
-0.959453821,-0.249417648,-0.131298125,-0.024023414,0.017040908,0.022230506,-0.213512555,-0.160883218,0.304828554,0.25207885,-1.434794359,0.318593743
-0.959453821,-0.249417648,-0.131298125,-0.024023414,0.017040908,0.022230506,-0.213512555,-0.160883218,0.304828554,0.25207885,-1.434794359,0.318593743
-0.959453821,-0.249417648,-0.131298125,-0.024023414,0.017040908,0.022230506,-0.213512555,-0.160883218,0.304828554,0.25207885,-1.434794359,0.318593743
-0.959453821,-0.249417648,-0.131298125,-0.024023414,0.017040908,0.022230506,-0.213512555,-0.160883218,0.304828554,0.25207885,-1.434794359,0.318593743
-0.959453821,-0.249417648,-0.131298125,-0.024023414,0.017040908,0.022230506,-0.213512555,-0.160883218,0.304828554,0.25207885,-1.434794359,0.318593743
-0.959453821,-0.249417648,-0.131298125,-0.024023414,0.017040908,0.022230506,-0.213512555,-0.160883218,0.304828554,0.25207885,-1.434794359,0.318593743
-0.962733984,-0.238767341,-0.127016947,-0.034796357,-0.010943279,-0.006236017,-0.182135433,-0.217347831,0.28572768,0.241096279,-1.439620345,0.312907275
-0.962733984,-0.238767341,-0.127016947,-0.034796357,-0.010943279,-0.006236017,-0.182135433,-0.217347831,0.28572768,0.241096279,-1.439620345,0.312907275
-0.962733984,-0.238767341,-0.127016947,-0.034796357,-0.010943279,-0.006236017,-0.182135433,-0.217347831,0.28572768,0.241096279,-1.439620345,0.312907275
-0.962733984,-0.238767341,-0.127016947,-0.034796357,-0.010943279,-0.006236017,-0.182135433,-0.217347831,0.28572768,0.241096279,-1.439620345,0.312907275
-0.962733984,-0.238767341,-0.127016947,-0.034796357,-0.010943279,-0.006236017,-0.182135433,-0.217347831,0.28572768,0.241096279,-1.439620345,0.312907275
-0.962733984,-0.238767341,-0.127016947,-0.034796357,-0.010943279,-0.006236017,-0.182135433,-0.217347831,0.28572768,0.241096279,-1.439620345,0.312907275
-0.962733984,-0.238767341,-0.127016947,-0.034796357,-0.010943279,-0.006236017,-0.182135433,-0.217347831,0.28572768,0.241096279,-1.439620345,0.312907275
-0.962733984,-0.238767341,-0.127016947,-0.034796357,-0.010943279,-0.006236017,-0.182135433,-0.217347831,0.28572768,0.241096279,-1.439620345,0.312907275
-0.962733984,-0.238767341,-0.127016947,-0.034796357,-0.010943279,-0.006236017,-0.182135433,-0.217347831,0.28572768,0.241096279,-1.439620345,0.312907275
-0.969423294,-0.217586339,-0.11346662,-0.012924075,-0.018147066,-0.01581955,-0.093953051,-0.025855891,0.050266955,0.219340875,-1.454280978,0.294721817
-0.969423294,-0.217586339,-0.11346662,-0.012924075,-0.018147066,-0.01581955,-0.093953051,-0.025855891,0.050266955,0.219340875,-1.454280978,0.294721817
-0.969423294,-0.217586339,-0.11346662,-0.012924075,-0.018147066,-0.01581955,-0.093953051,-0.025855891,0.050266955,0.219340875,-1.454280978,0.294721817
-0.969459236,-0.216730505,-0.11478892,0.001134396,-0.011663496,-0.009675145,-0.175611481,-0.026175037,0.004281404,0.218464125,-1.452939953,0.288906556
-0.969459236,-0.216730505,-0.11478892,0.001134396,-0.011663496,-0.009675145,-0.175611481,-0.026175037,0.004281404,0.218464125,-1.452939953,0.288906556
-0.969459236,-0.216730505,-0.11478892,0.001134396,-0.011663496,-0.009675145,-0.175611481,-0.026175037,0.004281404,0.218464125,-1.452939953,0.288906556
-0.969459236,-0.216730505,-0.11478892,0.001134396,-0.011663496,-0.009675145,-0.175611481,-0.026175037,0.004281404,0.218464125,-1.452939953,0.288906556
-0.969459236,-0.216730505,-0.11478892,0.001134396,-0.011663496,-0.009675145,-0.175611481,-0.026175037,0.004281404,0.218464125,-1.452939953,0.288906556
-0.969459236,-0.216730505,-0.11478892,0.001134396,-0.011663496,-0.009675145,-0.175611481,-0.026175037,0.004281404,0.218464125,-1.452939953,0.288906556
-0.969459236,-0.216730505,-0.11478892,0.001134396,-0.011663496,-0.009675145,-0.175611481,-0.026175037,0.004281404,0.218464125,-1.452939953,0.288906556
-0.969459236,-0.216730505,-0.11478892,0.001134396,-0.011663496,-0.009675145,-0.175611481,-0.026175037,0.004281404,0.218464125,-1.452939953,0.288906556
-0.969459236,-0.216730505,-0.11478892,0.001134396,-0.011663496,-0.009675145,-0.175611481,-0.026175037,0.004281404,0.218464125,-1.452939953,0.288906556
-0.969459236,-0.216730505,-0.11478892,0.001134396,-0.011663496,-0.009675145,-0.175611481,-0.026175037,0.004281404,0.218464125,-1.452939953,0.288906556
-0.969459236,-0.216730505,-0.11478892,0.001134396,-0.011663496,-0.009675145,-0.175611481,-0.026175037,0.004281404,0.218464125,-1.452939953,0.288906556
-0.969459236,-0.216730505,-0.11478892,0.001134396,-0.011663496,-0.009675145,-0.175611481,-0.026175037,0.004281404,0.218464125,-1.452939953,0.288906556
-0.969331205,-0.216300502,-0.116666183,-0.003937185,-0.004143611,-0.003266335,-0.200092688,0.010080911,-0.011302989,0.218023677,-1.451015093,0.281075134
-0.969331205,-0.216300502,-0.116666183,-0.003937185,-0.004143611,-0.003266335,-0.200092688,0.010080911,-0.011302989,0.218023677,-1.451015093,0.281075134
-0.969331205,-0.216300502,-0.116666183,-0.003937185,-0.004143611,-0.003266335,-0.200092688,0.010080911,-0.011302989,0.218023677,-1.451015093,0.281075134
-0.969331205,-0.216300502,-0.116666183,-0.003937185,-0.004143611,-0.003266335,-0.200092688,0.010080911,-0.011302989,0.218023677,-1.451015093,0.281075134
-0.969331205,-0.216300502,-0.116666183,-0.003937185,-0.004143611,-0.003266335,-0.200092688,0.010080911,-0.011302989,0.218023677,-1.451015093,0.281075134
-0.969331205,-0.216300502,-0.116666183,-0.003937185,-0.004143611,-0.003266335,-0.200092688,0.010080911,-0.011302989,0.218023677,-1.451015093,0.281075134
-0.969331205,-0.216300502,-0.116666183,-0.003937185,-0.004143611,-0.003266335,-0.200092688,0.010080911,-0.011302989,0.218023677,-1.451015093,0.281075134
-0.969331205,-0.216300502,-0.116666183,-0.003937185,-0.004143611,-0.003266335,-0.200092688,0.010080911,-0.011302989,0.218023677,-1.451015093,0.281075134
-0.969331205,-0.216300502,-0.116666183,-0.003937185,-0.004143611,-0.003266335,-0.200092688,0.010080911,-0.011302989,0.218023677,-1.451015093,0.281075134
-0.969331205,-0.216300502,-0.116666183,-0.003937185,-0.004143611,-0.003266335,-0.200092688,0.010080911,-0.011302989,0.218023677,-1.451015093,0.281075134
-0.969331205,-0.216300502,-0.116666183,-0.003937185,-0.004143611,-0.003266335,-0.200092688,0.010080911,-0.011302989,0.218023677,-1.451015093,0.281075134
-0.969331205,-0.216300502,-0.116666183,-0.003937185,-0.004143611,-0.003266335,-0.200092688,0.010080911,-0.011302989,0.218023677,-1.451015093,0.281075134
-0.969331205,-0.216300502,-0.116666183,-0.003937185,-0.004143611,-0.003266335,-0.200092688,0.010080911,-0.011302989,0.218023677,-1.451015093,0.281075134
-0.969331205,-0.216300502,-0.116666183,-0.003937185,-0.004143611,-0.003266335,-0.200092688,0.010080911,-0.011302989,0.218023677,-1.451015093,0.281075134
-0.968791485,-0.217257231,-0.119340658,0.01594013,-0.001096264,-0.004605651,-0.229366601,0.00617926,-0.048168007,0.219003699,-1.448228722,0.272103215
-0.968791485,-0.217257231,-0.119340658,0.01594013,-0.001096264,-0.004605651,-0.229366601,0.00617926,-0.048168007,0.219003699,-1.448228722,0.272103215
-0.968791485,-0.217257231,-0.119340658,0.01594013,-0.001096264,-0.004605651,-0.229366601,0.00617926,-0.048168007,0.219003699,-1.448228722,0.272103215
-0.968791485,-0.217257231,-0.119340658,0.01594013,-0.001096264,-0.004605651,-0.229366601,0.00617926,-0.048168007,0.219003699,-1.448228722,0.272103215
-0.968791485,-0.217257231,-0.119340658,0.01594013,-0.001096264,-0.004605651,-0.229366601,0.00617926,-0.048168007,0.219003699,-1.448228722,0.272103215
-0.968791485,-0.217257231,-0.119340658,0.01594013,-0.001096264,-0.004605651,-0.229366601,0.00617926,-0.048168007,0.219003699,-1.448228722,0.272103215
-0.968791485,-0.217257231,-0.119340658,0.01594013,-0.001096264,-0.004605651,-0.229366601,0.00617926,-0.048168007,0.219003699,-1.448228722,0.272103215
-0.968791485,-0.217257231,-0.119340658,0.01594013,-0.001096264,-0.004605651,-0.229366601,0.00617926,-0.048168007,0.219003699,-1.448228722,0.272103215
-0.968791485,-0.217257231,-0.119340658,0.01594013,-0.001096264,-0.004605651,-0.229366601,0.00617926,-0.048168007,0.219003699,-1.448228722,0.272103215
-0.968093276,-0.219203785,-0.121428646,0.001662016,0.026653022,-0.00048852,-0.123057365,0.026610743,-0.094467968,0.220998329,-1.446017252,0.263063253
-0.968093276,-0.219203785,-0.121428646,0.001662016,0.026653022,-0.00048852,-0.123057365,0.026610743,-0.094467968,0.220998329,-1.446017252,0.263063253
-0.968093276,-0.219203785,-0.121428646,0.001662016,0.026653022,-0.00048852,-0.123057365,0.026610743,-0.094467968,0.220998329,-1.446017252,0.263063253
-0.968093276,-0.219203785,-0.121428646,0.001662016,0.026653022,-0.00048852,-0.123057365,0.026610743,-0.094467968,0.220998329,-1.446017252,0.263063253
-0.968093276,-0.219203785,-0.121428646,0.001662016,0.026653022,-0.00048852,-0.123057365,0.026610743,-0.094467968,0.220998329,-1.446017252,0.263063253
-0.968093276,-0.219203785,-0.121428646,0.001662016,0.026653022,-0.00048852,-0.123057365,0.026610743,-0.094467968,0.220998329,-1.446017252,0.263063253
-0.968093276,-0.219203785,-0.121428646,0.001662016,0.026653022,-0.00048852,-0.123057365,0.026610743,-0.094467968,0.220998329,-1.446017252,0.263063253
-0.968093276,-0.219203785,-0.121428646,0.001662016,0.026653022,-0.00048852,-0.123057365,0.026610743,-0.094467968,0.220998329,-1.446017252,0.263063253
-0.968093276,-0.219203785,-0.121428646,0.001662016,0.026653022,-0.00048852,-0.123057365,0.026610743,-0.094467968,0.220998329,-1.446017252,0.263063253
-0.966920853,-0.222384468,-0.124935828,0.002289653,0.040743604,0.039212823,0.084901638,0.122358471,-0.079551019,0.224259499,-1.44229828,0.263189958
-0.966920853,-0.222384468,-0.124935828,0.002289653,0.040743604,0.039212823,0.084901638,0.122358471,-0.079551019,0.224259499,-1.44229828,0.263189958
-0.966920853,-0.222384468,-0.124935828,0.002289653,0.040743604,0.039212823,0.084901638,0.122358471,-0.079551019,0.224259499,-1.44229828,0.263189958
-0.966920853,-0.222384468,-0.124935828,0.002289653,0.040743604,0.039212823,0.084901638,0.122358471,-0.079551019,0.224259499,-1.44229828,0.263189958
-0.966920853,-0.222384468,-0.124935828,0.002289653,0.040743604,0.039212823,0.084901638,0.122358471,-0.079551019,0.224259499,-1.44229828,0.263189958
-0.966920853,-0.222384468,-0.124935828,0.002289653,0.040743604,0.039212823,0.084901638,0.122358471,-0.079551019,0.224259499,-1.44229828,0.263189958
-0.965970755,-0.224832386,-0.127870068,0.021419883,0.00353387,0.024996519,-0.089648061,0.034502611,-0.078776836,0.226771017,-1.439186817,0.263170737
-0.965970755,-0.224832386,-0.127870068,0.021419883,0.00353387,0.024996519,-0.089648061,0.034502611,-0.078776836,0.226771017,-1.439186817,0.263170737
-0.965970755,-0.224832386,-0.127870068,0.021419883,0.00353387,0.024996519,-0.089648061,0.034502611,-0.078776836,0.226771017,-1.439186817,0.263170737
-0.965970755,-0.224832386,-0.127870068,0.021419883,0.00353387,0.024996519,-0.089648061,0.034502611,-0.078776836,0.226771017,-1.439186817,0.263170737
-0.965970755,-0.224832386,-0.127870068,0.021419883,0.00353387,0.024996519,-0.089648061,0.034502611,-0.078776836,0.226771017,-1.439186817,0.263170737
-0.965970755,-0.224832386,-0.127870068,0.021419883,0.00353387,0.024996519,-0.089648061,0.034502611,-0.078776836,0.226771017,-1.439186817,0.263170737
-0.965792477,-0.225495741,-0.128048718,0.010972083,0.024506599,0.031050086,-0.204018086,-0.00904878,-0.081884637,0.227451854,-1.438981016,0.256809391
-0.965792477,-0.225495741,-0.128048718,0.010972083,0.024506599,0.031050086,-0.204018086,-0.00904878,-0.081884637,0.227451854,-1.438981016,0.256809391
-0.965792477,-0.225495741,-0.128048718,0.010972083,0.024506599,0.031050086,-0.204018086,-0.00904878,-0.081884637,0.227451854,-1.438981016,0.256809391
-0.965792477,-0.225495741,-0.128048718,0.010972083,0.024506599,0.031050086,-0.204018086,-0.00904878,-0.081884637,0.227451854,-1.438981016,0.256809391
-0.965792477,-0.225495741,-0.128048718,0.010972083,0.024506599,0.031050086,-0.204018086,-0.00904878,-0.081884637,0.227451854,-1.438981016,0.256809391
-0.965792477,-0.225495741,-0.128048718,0.010972083,0.024506599,0.031050086,-0.204018086,-0.00904878,-0.081884637,0.227451854,-1.438981016,0.256809391
-0.965792477,-0.225495741,-0.128048718,0.010972083,0.024506599,0.031050086,-0.204018086,-0.00904878,-0.081884637,0.227451854,-1.438981016,0.256809391
-0.965792477,-0.225495741,-0.128048718,0.010972083,0.024506599,0.031050086,-0.204018086,-0.00904878,-0.081884637,0.227451854,-1.438981016,0.256809391
-0.965792477,-0.225495741,-0.128048718,0.010972083,0.024506599,0.031050086,-0.204018086,-0.00904878,-0.081884637,0.227451854,-1.438981016,0.256809391
-0.965540111,-0.226733759,-0.127764851,0.005348504,0.034411579,0.037815809,-0.201600164,-0.048278511,-0.053233128,0.228722791,-1.439235889,0.248223665
-0.965540111,-0.226733759,-0.127764851,0.005348504,0.034411579,0.037815809,-0.201600164,-0.048278511,-0.053233128,0.228722791,-1.439235889,0.248223665
-0.965540111,-0.226733759,-0.127764851,0.005348504,0.034411579,0.037815809,-0.201600164,-0.048278511,-0.053233128,0.228722791,-1.439235889,0.248223665
-0.965540111,-0.226733759,-0.127764851,0.005348504,0.034411579,0.037815809,-0.201600164,-0.048278511,-0.053233128,0.228722791,-1.439235889,0.248223665
-0.965540111,-0.226733759,-0.127764851,0.005348504,0.034411579,0.037815809,-0.201600164,-0.048278511,-0.053233128,0.228722791,-1.439235889,0.248223665
-0.965540111,-0.226733759,-0.127764851,0.005348504,0.034411579,0.037815809,-0.201600164,-0.048278511,-0.053233128,0.228722791,-1.439235889,0.248223665
-0.966775954,-0.224537715,-0.122175641,0.005822182,0.024189591,0.02285707,-0.18118608,-0.113034531,0.024321426,0.226468609,-1.445088399,0.234712797
-0.966775954,-0.224537715,-0.122175641,0.005822182,0.024189591,0.02285707,-0.18118608,-0.113034531,0.024321426,0.226468609,-1.445088399,0.234712797
-0.966775954,-0.224537715,-0.122175641,0.005822182,0.024189591,0.02285707,-0.18118608,-0.113034531,0.024321426,0.226468609,-1.445088399,0.234712797
-0.966775954,-0.224537715,-0.122175641,0.005822182,0.024189591,0.02285707,-0.18118608,-0.113034531,0.024321426,0.226468609,-1.445088399,0.234712797
-0.966775954,-0.224537715,-0.122175641,0.005822182,0.024189591,0.02285707,-0.18118608,-0.113034531,0.024321426,0.226468609,-1.445088399,0.234712797
-0.966775954,-0.224537715,-0.122175641,0.005822182,0.024189591,0.02285707,-0.18118608,-0.113034531,0.024321426,0.226468609,-1.445088399,0.234712797
-0.966775954,-0.224537715,-0.122175641,0.005822182,0.024189591,0.02285707,-0.18118608,-0.113034531,0.024321426,0.226468609,-1.445088399,0.234712797
-0.966775954,-0.224537715,-0.122175641,0.005822182,0.024189591,0.02285707,-0.18118608,-0.113034531,0.024321426,0.226468609,-1.445088399,0.234712797
-0.966775954,-0.224537715,-0.122175641,0.005822182,0.024189591,0.02285707,-0.18118608,-0.113034531,0.024321426,0.226468609,-1.445088399,0.234712797
-0.968015671,-0.221372545,-0.118066333,0.011075199,0.017942235,0.000971079,-0.203902423,-0.140495613,0.019497164,0.223221717,-1.449428406,0.226512678
-0.968015671,-0.221372545,-0.118066333,0.011075199,0.017942235,0.000971079,-0.203902423,-0.140495613,0.019497164,0.223221717,-1.449428406,0.226512678
-0.968015671,-0.221372545,-0.118066333,0.011075199,0.017942235,0.000971079,-0.203902423,-0.140495613,0.019497164,0.223221717,-1.449428406,0.226512678
-0.968015671,-0.221372545,-0.118066333,0.011075199,0.017942235,0.000971079,-0.203902423,-0.140495613,0.019497164,0.223221717,-1.449428406,0.226512678
-0.968015671,-0.221372545,-0.118066333,0.011075199,0.017942235,0.000971079,-0.203902423,-0.140495613,0.019497164,0.223221717,-1.449428406,0.226512678
-0.968015671,-0.221372545,-0.118066333,0.011075199,0.017942235,0.000971079,-0.203902423,-0.140495613,0.019497164,0.223221717,-1.449428406,0.226512678
-0.96896559,-0.219669089,-0.113362752,-0.006453097,0.042560205,0.015798628,0.061820298,-0.0736982,0.018487716,0.221475254,-1.454332188,0.223440239
-0.96896559,-0.219669089,-0.113362752,-0.006453097,0.042560205,0.015798628,0.061820298,-0.0736982,0.018487716,0.221475254,-1.454332188,0.223440239
-0.96896559,-0.219669089,-0.113362752,-0.006453097,0.042560205,0.015798628,0.061820298,-0.0736982,0.018487716,0.221475254,-1.454332188,0.223440239
-0.96933341,-0.219282269,-0.110941872,-0.008359313,0.016965762,0.012538791,0.169168293,0.006843816,0.003509141,0.221078774,-1.456840463,0.228979009
-0.96933341,-0.219282269,-0.110941872,-0.008359313,0.016965762,0.012538791,0.169168293,0.006843816,0.003509141,0.221078774,-1.456840463,0.228979009
-0.96933341,-0.219282269,-0.110941872,-0.008359313,0.016965762,0.012538791,0.169168293,0.006843816,0.003509141,0.221078774,-1.456840463,0.228979009
-0.96933341,-0.219282269,-0.110941872,-0.008359313,0.016965762,0.012538791,0.169168293,0.006843816,0.003509141,0.221078774,-1.456840463,0.228979009
-0.96933341,-0.219282269,-0.110941872,-0.008359313,0.016965762,0.012538791,0.169168293,0.006843816,0.003509141,0.221078774,-1.456840463,0.228979009
-0.96933341,-0.219282269,-0.110941872,-0.008359313,0.016965762,0.012538791,0.169168293,0.006843816,0.003509141,0.221078774,-1.456840463,0.228979009
-0.968731165,-0.223682866,-0.107358068,0.001201034,0.028187081,0.034330189,0.105971105,-0.01812746,-0.068730325,0.225591454,-1.460423331,0.242627793
-0.968731165,-0.223682866,-0.107358068,0.001201034,0.028187081,0.034330189,0.105971105,-0.01812746,-0.068730325,0.225591454,-1.460423331,0.242627793
-0.968731165,-0.223682866,-0.107358068,0.001201034,0.028187081,0.034330189,0.105971105,-0.01812746,-0.068730325,0.225591454,-1.460423331,0.242627793
-0.968731165,-0.223682866,-0.107358068,0.001201034,0.028187081,0.034330189,0.105971105,-0.01812746,-0.068730325,0.225591454,-1.460423331,0.242627793
-0.968731165,-0.223682866,-0.107358068,0.001201034,0.028187081,0.034330189,0.105971105,-0.01812746,-0.068730325,0.225591454,-1.460423331,0.242627793
-0.968731165,-0.223682866,-0.107358068,0.001201034,0.028187081,0.034330189,0.105971105,-0.01812746,-0.068730325,0.225591454,-1.460423331,0.242627793
-0.968528569,-0.225795507,-0.104731761,0.003897429,0.014110103,0.019024014,0.057642866,-0.035520189,-0.041679483,0.227759551,-1.463079948,0.24637369
-0.968528569,-0.225795507,-0.104731761,0.003897429,0.014110103,0.019024014,0.057642866,-0.035520189,-0.041679483,0.227759551,-1.463079948,0.24637369
-0.968528569,-0.225795507,-0.104731761,0.003897429,0.014110103,0.019024014,0.057642866,-0.035520189,-0.041679483,0.227759551,-1.463079948,0.24637369
-0.968528569,-0.225795507,-0.104731761,0.003897429,0.014110103,0.019024014,0.057642866,-0.035520189,-0.041679483,0.227759551,-1.463079948,0.24637369
-0.968528569,-0.225795507,-0.104731761,0.003897429,0.014110103,0.019024014,0.057642866,-0.035520189,-0.041679483,0.227759551,-1.463079948,0.24637369
-0.968528569,-0.225795507,-0.104731761,0.003897429,0.014110103,0.019024014,0.057642866,-0.035520189,-0.041679483,0.227759551,-1.463079948,0.24637369
-0.968528569,-0.225795507,-0.104731761,0.003897429,0.014110103,0.019024014,0.057642866,-0.035520189,-0.041679483,0.227759551,-1.463079948,0.24637369
-0.968528569,-0.225795507,-0.104731761,0.003897429,0.014110103,0.019024014,0.057642866,-0.035520189,-0.041679483,0.227759551,-1.463079948,0.24637369
-0.968528569,-0.225795507,-0.104731761,0.003897429,0.014110103,0.019024014,0.057642866,-0.035520189,-0.041679483,0.227759551,-1.463079948,0.24637369
-0.968460143,-0.227710083,-0.101157978,-0.001236677,0.028521672,0.012520373,0.155487224,-0.021157918,-0.079287469,0.229725334,-1.466721337,0.249550734
-0.968460143,-0.227710083,-0.101157978,-0.001236677,0.028521672,0.012520373,0.155487224,-0.021157918,-0.079287469,0.229725334,-1.466721337,0.249550734
-0.968460143,-0.227710083,-0.101157978,-0.001236677,0.028521672,0.012520373,0.155487224,-0.021157918,-0.079287469,0.229725334,-1.466721337,0.249550734
-0.968460143,-0.227710083,-0.101157978,-0.001236677,0.028521672,0.012520373,0.155487224,-0.021157918,-0.079287469,0.229725334,-1.466721337,0.249550734
-0.968460143,-0.227710083,-0.101157978,-0.001236677,0.028521672,0.012520373,0.155487224,-0.021157918,-0.079287469,0.229725334,-1.466721337,0.249550734
-0.968460143,-0.227710083,-0.101157978,-0.001236677,0.028521672,0.012520373,0.155487224,-0.021157918,-0.079287469,0.229725334,-1.466721337,0.249550734
-0.968460143,-0.227710083,-0.101157978,-0.001236677,0.028521672,0.012520373,0.155487224,-0.021157918,-0.079287469,0.229725334,-1.466721337,0.249550734
-0.968460143,-0.227710083,-0.101157978,-0.001236677,0.028521672,0.012520373,0.155487224,-0.021157918,-0.079287469,0.229725334,-1.466721337,0.249550734
-0.968460143,-0.227710083,-0.101157978,-0.001236677,0.028521672,0.012520373,0.155487224,-0.021157918,-0.079287469,0.229725334,-1.466721337,0.249550734
-0.968460143,-0.227710083,-0.101157978,-0.001236677,0.028521672,0.012520373,0.155487224,-0.021157918,-0.079287469,0.229725334,-1.466721337,0.249550734
-0.968460143,-0.227710083,-0.101157978,-0.001236677,0.028521672,0.012520373,0.155487224,-0.021157918,-0.079287469,0.229725334,-1.466721337,0.249550734
-0.968460143,-0.227710083,-0.101157978,-0.001236677,0.028521672,0.012520373,0.155487224,-0.021157918,-0.079287469,0.229725334,-1.466721337,0.249550734
-0.967682302,-0.231425017,-0.100166671,-0.022873104,-0.002461821,-0.006949484,0.122224875,0.075650521,-0.102125995,0.233542212,-1.467651729,0.256366545
-0.967682302,-0.231425017,-0.100166671,-0.022873104,-0.002461821,-0.006949484,0.122224875,0.075650521,-0.102125995,0.233542212,-1.467651729,0.256366545
-0.967682302,-0.231425017,-0.100166671,-0.022873104,-0.002461821,-0.006949484,0.122224875,0.075650521,-0.102125995,0.233542212,-1.467651729,0.256366545
-0.967682302,-0.231425017,-0.100166671,-0.022873104,-0.002461821,-0.006949484,0.122224875,0.075650521,-0.102125995,0.233542212,-1.467651729,0.256366545
-0.967682302,-0.231425017,-0.100166671,-0.022873104,-0.002461821,-0.006949484,0.122224875,0.075650521,-0.102125995,0.233542212,-1.467651729,0.256366545
-0.967682302,-0.231425017,-0.100166671,-0.022873104,-0.002461821,-0.006949484,0.122224875,0.075650521,-0.102125995,0.233542212,-1.467651729,0.256366545
-0.967682302,-0.231425017,-0.100166671,-0.022873104,-0.002461821,-0.006949484,0.122224875,0.075650521,-0.102125995,0.233542212,-1.467651729,0.256366545
-0.967682302,-0.231425017,-0.100166671,-0.022873104,-0.002461821,-0.006949484,0.122224875,0.075650521,-0.102125995,0.233542212,-1.467651729,0.256366545
-0.967682302,-0.231425017,-0.100166671,-0.022873104,-0.002461821,-0.006949484,0.122224875,0.075650521,-0.102125995,0.233542212,-1.467651729,0.256366545
-0.967682302,-0.231425017,-0.100166671,-0.022873104,-0.002461821,-0.006949484,0.122224875,0.075650521,-0.102125995,0.233542212,-1.467651729,0.256366545
-0.967682302,-0.231425017,-0.100166671,-0.022873104,-0.002461821,-0.006949484,0.122224875,0.075650521,-0.102125995,0.233542212,-1.467651729,0.256366545
-0.967682302,-0.231425017,-0.100166671,-0.022873104,-0.002461821,-0.006949484,0.122224875,0.075650521,-0.102125995,0.233542212,-1.467651729,0.256366545
-0.96676296,-0.234214798,-0.102531157,0.007564127,0.008689687,-0.054206371,-0.039355252,0.053954408,-0.090911478,0.236410818,-1.465135152,0.257742921
-0.96676296,-0.234214798,-0.102531157,0.007564127,0.008689687,-0.054206371,-0.039355252,0.053954408,-0.090911478,0.236410818,-1.465135152,0.257742921
-0.96676296,-0.234214798,-0.102531157,0.007564127,0.008689687,-0.054206371,-0.039355252,0.053954408,-0.090911478,0.236410818,-1.465135152,0.257742921
-0.96676296,-0.234214798,-0.102531157,0.007564127,0.008689687,-0.054206371,-0.039355252,0.053954408,-0.090911478,0.236410818,-1.465135152,0.257742921
-0.96676296,-0.234214798,-0.102531157,0.007564127,0.008689687,-0.054206371,-0.039355252,0.053954408,-0.090911478,0.236410818,-1.465135152,0.257742921
-0.965991795,-0.236264467,-0.105066262,-0.00938189,0.002926767,-0.02785188,-0.022184709,0.098835476,-0.070770472,0.238519671,-1.462457027,0.255273497
-0.965991795,-0.236264467,-0.105066262,-0.00938189,0.002926767,-0.02785188,-0.022184709,0.098835476,-0.070770472,0.238519671,-1.462457027,0.255273497
-0.965991795,-0.236264467,-0.105066262,-0.00938189,0.002926767,-0.02785188,-0.022184709,0.098835476,-0.070770472,0.238519671,-1.462457027,0.255273497
-0.965991795,-0.236264467,-0.105066262,-0.00938189,0.002926767,-0.02785188,-0.022184709,0.098835476,-0.070770472,0.238519671,-1.462457027,0.255273497
-0.965991795,-0.236264467,-0.105066262,-0.00938189,0.002926767,-0.02785188,-0.022184709,0.098835476,-0.070770472,0.238519671,-1.462457027,0.255273497
-0.965991795,-0.236264467,-0.105066262,-0.00938189,0.002926767,-0.02785188,-0.022184709,0.098835476,-0.070770472,0.238519671,-1.462457027,0.255273497
-0.965991795,-0.236264467,-0.105066262,-0.00938189,0.002926767,-0.02785188,-0.022184709,0.098835476,-0.070770472,0.238519671,-1.462457027,0.255273497
-0.965991795,-0.236264467,-0.105066262,-0.00938189,0.002926767,-0.02785188,-0.022184709,0.098835476,-0.070770472,0.238519671,-1.462457027,0.255273497
-0.965991795,-0.236264467,-0.105066262,-0.00938189,0.002926767,-0.02785188,-0.022184709,0.098835476,-0.070770472,0.238519671,-1.462457027,0.255273497
-0.965991795,-0.236264467,-0.105066262,-0.00938189,0.002926767,-0.02785188,-0.022184709,0.098835476,-0.070770472,0.238519671,-1.462457027,0.255273497
-0.965991795,-0.236264467,-0.105066262,-0.00938189,0.002926767,-0.02785188,-0.022184709,0.098835476,-0.070770472,0.238519671,-1.462457027,0.255273497
-0.965991795,-0.236264467,-0.105066262,-0.00938189,0.002926767,-0.02785188,-0.022184709,0.098835476,-0.070770472,0.238519671,-1.462457027,0.255273497
-0.964639008,-0.23879981,-0.111562699,-0.039268672,-0.009796739,0.005881548,-0.0252042,0.153587088,-0.082845509,0.241129714,-1.455655582,0.253359303
-0.964639008,-0.23879981,-0.111562699,-0.039268672,-0.009796739,0.005881548,-0.0252042,0.153587088,-0.082845509,0.241129714,-1.455655582,0.253359303
-0.964639008,-0.23879981,-0.111562699,-0.039268672,-0.009796739,0.005881548,-0.0252042,0.153587088,-0.082845509,0.241129714,-1.455655582,0.253359303
-0.963039398,-0.241572067,-0.119155124,-0.014424086,-0.004155636,0.007018864,0.021863697,0.170670658,-0.091098964,0.243985572,-1.447693765,0.25287093
-0.963039398,-0.241572067,-0.119155124,-0.014424086,-0.004155636,0.007018864,0.021863697,0.170670658,-0.091098964,0.243985572,-1.447693765,0.25287093
-0.963039398,-0.241572067,-0.119155124,-0.014424086,-0.004155636,0.007018864,0.021863697,0.170670658,-0.091098964,0.243985572,-1.447693765,0.25287093
-0.963039398,-0.241572067,-0.119155124,-0.014424086,-0.004155636,0.007018864,0.021863697,0.170670658,-0.091098964,0.243985572,-1.447693765,0.25287093
-0.963039398,-0.241572067,-0.119155124,-0.014424086,-0.004155636,0.007018864,0.021863697,0.170670658,-0.091098964,0.243985572,-1.447693765,0.25287093
-0.963039398,-0.241572067,-0.119155124,-0.014424086,-0.004155636,0.007018864,0.021863697,0.170670658,-0.091098964,0.243985572,-1.447693765,0.25287093
-0.963039398,-0.241572067,-0.119155124,-0.014424086,-0.004155636,0.007018864,0.021863697,0.170670658,-0.091098964,0.243985572,-1.447693765,0.25287093
-0.963039398,-0.241572067,-0.119155124,-0.014424086,-0.004155636,0.007018864,0.021863697,0.170670658,-0.091098964,0.243985572,-1.447693765,0.25287093
-0.963039398,-0.241572067,-0.119155124,-0.014424086,-0.004155636,0.007018864,0.021863697,0.170670658,-0.091098964,0.243985572,-1.447693765,0.25287093
-0.963039398,-0.241572067,-0.119155124,-0.014424086,-0.004155636,0.007018864,0.021863697,0.170670658,-0.091098964,0.243985572,-1.447693765,0.25287093
-0.963039398,-0.241572067,-0.119155124,-0.014424086,-0.004155636,0.007018864,0.021863697,0.170670658,-0.091098964,0.243985572,-1.447693765,0.25287093
-0.961309671,-0.24473758,-0.126440361,0.010381758,-0.016187727,0.002371192,-0.03811615,0.21650207,-0.103548981,0.247249038,-1.440017767,0.25168576
-0.961309671,-0.24473758,-0.126440361,0.010381758,-0.016187727,0.002371192,-0.03811615,0.21650207,-0.103548981,0.247249038,-1.440017767,0.25168576
-0.961309671,-0.24473758,-0.126440361,0.010381758,-0.016187727,0.002371192,-0.03811615,0.21650207,-0.103548981,0.247249038,-1.440017767,0.25168576
-0.961309671,-0.24473758,-0.126440361,0.010381758,-0.016187727,0.002371192,-0.03811615,0.21650207,-0.103548981,0.247249038,-1.440017767,0.25168576
-0.961309671,-0.24473758,-0.126440361,0.010381758,-0.016187727,0.002371192,-0.03811615,0.21650207,-0.103548981,0.247249038,-1.440017767,0.25168576
-0.961309671,-0.24473758,-0.126440361,0.010381758,-0.016187727,0.002371192,-0.03811615,0.21650207,-0.103548981,0.247249038,-1.440017767,0.25168576
-0.961309671,-0.24473758,-0.126440361,0.010381758,-0.016187727,0.002371192,-0.03811615,0.21650207,-0.103548981,0.247249038,-1.440017767,0.25168576
-0.961309671,-0.24473758,-0.126440361,0.010381758,-0.016187727,0.002371192,-0.03811615,0.21650207,-0.103548981,0.247249038,-1.440017767,0.25168576
-0.961309671,-0.24473758,-0.126440361,0.010381758,-0.016187727,0.002371192,-0.03811615,0.21650207,-0.103548981,0.247249038,-1.440017767,0.25168576
-0.961309671,-0.24473758,-0.126440361,0.010381758,-0.016187727,0.002371192,-0.03811615,0.21650207,-0.103548981,0.247249038,-1.440017767,0.25168576
-0.958845794,-0.250279129,-0.134071141,0.0116871,0.028080672,0.034629524,0.166910753,0.23312442,-0.194423869,0.252968559,-1.431871482,0.252762507
-0.958845794,-0.250279129,-0.134071141,0.0116871,0.028080672,0.034629524,0.166910753,0.23312442,-0.194423869,0.252968559,-1.431871482,0.252762507
-0.958845794,-0.250279129,-0.134071141,0.0116871,0.028080672,0.034629524,0.166910753,0.23312442,-0.194423869,0.252968559,-1.431871482,0.252762507
-0.958845794,-0.250279129,-0.134071141,0.0116871,0.028080672,0.034629524,0.166910753,0.23312442,-0.194423869,0.252968559,-1.431871482,0.252762507
-0.958845794,-0.250279129,-0.134071141,0.0116871,0.028080672,0.034629524,0.166910753,0.23312442,-0.194423869,0.252968559,-1.431871482,0.252762507
-0.958845794,-0.250279129,-0.134071141,0.0116871,0.028080672,0.034629524,0.166910753,0.23312442,-0.194423869,0.252968559,-1.431871482,0.252762507
-0.958845794,-0.250279129,-0.134071141,0.0116871,0.028080672,0.034629524,0.166910753,0.23312442,-0.194423869,0.252968559,-1.431871482,0.252762507
-0.958845794,-0.250279129,-0.134071141,0.0116871,0.028080672,0.034629524,0.166910753,0.23312442,-0.194423869,0.252968559,-1.431871482,0.252762507
-0.958845794,-0.250279129,-0.134071141,0.0116871,0.028080672,0.034629524,0.166910753,0.23312442,-0.194423869,0.252968559,-1.431871482,0.252762507
-0.958845794,-0.250279129,-0.134071141,0.0116871,0.028080672,0.034629524,0.166910753,0.23312442,-0.194423869,0.252968559,-1.431871482,0.252762507
-0.958845794,-0.250279129,-0.134071141,0.0116871,0.028080672,0.034629524,0.166910753,0.23312442,-0.194423869,0.252968559,-1.431871482,0.252762507
-0.958845794,-0.250279129,-0.134071141,0.0116871,0.028080672,0.034629524,0.166910753,0.23312442,-0.194423869,0.252968559,-1.431871482,0.252762507
-0.955712855,-0.258915067,-0.139914215,-0.040990949,0.000370264,0.041143775,0.183666408,0.218256935,-0.176656634,0.261898812,-1.425431203,0.261035465
-0.955712855,-0.258915067,-0.139914215,-0.040990949,0.000370264,0.041143775,0.183666408,0.218256935,-0.176656634,0.261898812,-1.425431203,0.261035465
-0.955712855,-0.258915067,-0.139914215,-0.040990949,0.000370264,0.041143775,0.183666408,0.218256935,-0.176656634,0.261898812,-1.425431203,0.261035465
-0.955712855,-0.258915067,-0.139914215,-0.040990949,0.000370264,0.041143775,0.183666408,0.218256935,-0.176656634,0.261898812,-1.425431203,0.261035465
-0.955712855,-0.258915067,-0.139914215,-0.040990949,0.000370264,0.041143775,0.183666408,0.218256935,-0.176656634,0.261898812,-1.425431203,0.261035465
-0.955712855,-0.258915067,-0.139914215,-0.040990949,0.000370264,0.041143775,0.183666408,0.218256935,-0.176656634,0.261898812,-1.425431203,0.261035465
-0.955712855,-0.258915067,-0.139914215,-0.040990949,0.000370264,0.041143775,0.183666408,0.218256935,-0.176656634,0.261898812,-1.425431203,0.261035465
-0.955712855,-0.258915067,-0.139914215,-0.040990949,0.000370264,0.041143775,0.183666408,0.218256935,-0.176656634,0.261898812,-1.425431203,0.261035465
-0.955712855,-0.258915067,-0.139914215,-0.040990949,0.000370264,0.041143775,0.183666408,0.218256935,-0.176656634,0.261898812,-1.425431203,0.261035465
-0.955712855,-0.258915067,-0.139914215,-0.040990949,0.000370264,0.041143775,0.183666408,0.218256935,-0.176656634,0.261898812,-1.425431203,0.261035465
-0.955712855,-0.258915067,-0.139914215,-0.040990949,0.000370264,0.041143775,0.183666408,0.218256935,-0.176656634,0.261898812,-1.425431203,0.261035465
-0.955712855,-0.258915067,-0.139914215,-0.040990949,0.000370264,0.041143775,0.183666408,0.218256935,-0.176656634,0.261898812,-1.425431203,0.261035465
-0.955712855,-0.258915067,-0.139914215,-0.040990949,0.000370264,0.041143775,0.183666408,0.218256935,-0.176656634,0.261898812,-1.425431203,0.261035465
-0.955712855,-0.258915067,-0.139914215,-0.040990949,0.000370264,0.041143775,0.183666408,0.218256935,-0.176656634,0.261898812,-1.425431203,0.261035465
-0.953327298,-0.265100837,-0.144528493,0.031513631,0.006266087,0.051083446,0.036597237,0.129459858,-0.169990584,0.26830851,-1.420337773,0.264097577
-0.953327298,-0.265100837,-0.144528493,0.031513631,0.006266087,0.051083446,0.036597237,0.129459858,-0.169990584,0.26830851,-1.420337773,0.264097577
-0.953327298,-0.265100837,-0.144528493,0.031513631,0.006266087,0.051083446,0.036597237,0.129459858,-0.169990584,0.26830851,-1.420337773,0.264097577
-0.953327298,-0.265100837,-0.144528493,0.031513631,0.006266087,0.051083446,0.036597237,0.129459858,-0.169990584,0.26830851,-1.420337773,0.264097577
-0.953327298,-0.265100837,-0.144528493,0.031513631,0.006266087,0.051083446,0.036597237,0.129459858,-0.169990584,0.26830851,-1.420337773,0.264097577
-0.953327298,-0.265100837,-0.144528493,0.031513631,0.006266087,0.051083446,0.036597237,0.129459858,-0.169990584,0.26830851,-1.420337773,0.264097577
-0.953327298,-0.265100837,-0.144528493,0.031513631,0.006266087,0.051083446,0.036597237,0.129459858,-0.169990584,0.26830851,-1.420337773,0.264097577
-0.953327298,-0.265100837,-0.144528493,0.031513631,0.006266087,0.051083446,0.036597237,0.129459858,-0.169990584,0.26830851,-1.420337773,0.264097577
-0.953327298,-0.265100837,-0.144528493,0.031513631,0.006266087,0.051083446,0.036597237,0.129459858,-0.169990584,0.26830851,-1.420337773,0.264097577
-0.951394558,-0.272014469,-0.144417033,-0.009268165,0.022319645,0.030510068,0.285566837,0.071079418,-0.174911574,0.275485806,-1.42015124,0.269890898
-0.951394558,-0.272014469,-0.144417033,-0.009268165,0.022319645,0.030510068,0.285566837,0.071079418,-0.174911574,0.275485806,-1.42015124,0.269890898
-0.951394558,-0.272014469,-0.144417033,-0.009268165,0.022319645,0.030510068,0.285566837,0.071079418,-0.174911574,0.275485806,-1.42015124,0.269890898
-0.951394558,-0.272014469,-0.144417033,-0.009268165,0.022319645,0.030510068,0.285566837,0.071079418,-0.174911574,0.275485806,-1.42015124,0.269890898
-0.951394558,-0.272014469,-0.144417033,-0.009268165,0.022319645,0.030510068,0.285566837,0.071079418,-0.174911574,0.275485806,-1.42015124,0.269890898
-0.951394558,-0.272014469,-0.144417033,-0.009268165,0.022319645,0.030510068,0.285566837,0.071079418,-0.174911574,0.275485806,-1.42015124,0.269890898
-0.951394558,-0.272014469,-0.144417033,-0.009268165,0.022319645,0.030510068,0.285566837,0.071079418,-0.174911574,0.275485806,-1.42015124,0.269890898
-0.951394558,-0.272014469,-0.144417033,-0.009268165,0.022319645,0.030510068,0.285566837,0.071079418,-0.174911574,0.275485806,-1.42015124,0.269890898
-0.951394558,-0.272014469,-0.144417033,-0.009268165,0.022319645,0.030510068,0.285566837,0.071079418,-0.174911574,0.275485806,-1.42015124,0.269890898
-0.951394558,-0.272014469,-0.144417033,-0.009268165,0.022319645,0.030510068,0.285566837,0.071079418,-0.174911574,0.275485806,-1.42015124,0.269890898
-0.951394558,-0.272014469,-0.144417033,-0.009268165,0.022319645,0.030510068,0.285566837,0.071079418,-0.174911574,0.275485806,-1.42015124,0.269890898
-0.951394558,-0.272014469,-0.144417033,-0.009268165,0.022319645,0.030510068,0.285566837,0.071079418,-0.174911574,0.275485806,-1.42015124,0.269890898
-0.951394558,-0.272014469,-0.144417033,-0.009268165,0.022319645,0.030510068,0.285566837,0.071079418,-0.174911574,0.275485806,-1.42015124,0.269890898
-0.949809492,-0.278674155,-0.142135575,-0.019382715,0.002185017,-0.011429131,0.140905097,0.064238355,-0.082061686,0.282413293,-1.422252211,0.279936469
-0.949809492,-0.278674155,-0.142135575,-0.019382715,0.002185017,-0.011429131,0.140905097,0.064238355,-0.082061686,0.282413293,-1.422252211,0.279936469
-0.949809492,-0.278674155,-0.142135575,-0.019382715,0.002185017,-0.011429131,0.140905097,0.064238355,-0.082061686,0.282413293,-1.422252211,0.279936469
-0.949809492,-0.278674155,-0.142135575,-0.019382715,0.002185017,-0.011429131,0.140905097,0.064238355,-0.082061686,0.282413293,-1.422252211,0.279936469
-0.949809492,-0.278674155,-0.142135575,-0.019382715,0.002185017,-0.011429131,0.140905097,0.064238355,-0.082061686,0.282413293,-1.422252211,0.279936469
-0.949809492,-0.278674155,-0.142135575,-0.019382715,0.002185017,-0.011429131,0.140905097,0.064238355,-0.082061686,0.282413293,-1.422252211,0.279936469
-0.949809492,-0.278674155,-0.142135575,-0.019382715,0.002185017,-0.011429131,0.140905097,0.064238355,-0.082061686,0.282413293,-1.422252211,0.279936469
-0.949809492,-0.278674155,-0.142135575,-0.019382715,0.002185017,-0.011429131,0.140905097,0.064238355,-0.082061686,0.282413293,-1.422252211,0.279936469
-0.949809492,-0.278674155,-0.142135575,-0.019382715,0.002185017,-0.011429131,0.140905097,0.064238355,-0.082061686,0.282413293,-1.422252211,0.279936469
-0.949809492,-0.278674155,-0.142135575,-0.019382715,0.002185017,-0.011429131,0.140905097,0.064238355,-0.082061686,0.282413293,-1.422252211,0.279936469
-0.949809492,-0.278674155,-0.142135575,-0.019382715,0.002185017,-0.011429131,0.140905097,0.064238355,-0.082061686,0.282413293,-1.422252211,0.279936469
-0.949809492,-0.278674155,-0.142135575,-0.019382715,0.002185017,-0.011429131,0.140905097,0.064238355,-0.082061686,0.282413293,-1.422252211,0.279936469
-0.949809492,-0.278674155,-0.142135575,-0.019382715,0.002185017,-0.011429131,0.140905097,0.064238355,-0.082061686,0.282413293,-1.422252211,0.279936469
-0.949168861,-0.28012684,-0.143553063,0.006160915,0.012670964,-0.012193799,0.177652165,0.157080889,-0.060961835,0.283926237,-1.420693092,0.282677982
-0.949168861,-0.28012684,-0.143553063,0.006160915,0.012670964,-0.012193799,0.177652165,0.157080889,-0.060961835,0.283926237,-1.420693092,0.282677982
-0.949168861,-0.28012684,-0.143553063,0.006160915,0.012670964,-0.012193799,0.177652165,0.157080889,-0.060961835,0.283926237,-1.420693092,0.282677982
-0.949168861,-0.28012684,-0.143553063,0.006160915,0.012670964,-0.012193799,0.177652165,0.157080889,-0.060961835,0.283926237,-1.420693092,0.282677982
-0.949168861,-0.28012684,-0.143553063,0.006160915,0.012670964,-0.012193799,0.177652165,0.157080889,-0.060961835,0.283926237,-1.420693092,0.282677982
-0.949168861,-0.28012684,-0.143553063,0.006160915,0.012670964,-0.012193799,0.177652165,0.157080889,-0.060961835,0.283926237,-1.420693092,0.282677982
-0.947278917,-0.28530255,-0.145825446,0.008559048,0.043405205,-0.037357092,0.521967113,0.208910391,-0.115504757,0.289322092,-1.418053949,0.29983777
-0.947278917,-0.28530255,-0.145825446,0.008559048,0.043405205,-0.037357092,0.521967113,0.208910391,-0.115504757,0.289322092,-1.418053949,0.29983777
-0.947278917,-0.28530255,-0.145825446,0.008559048,0.043405205,-0.037357092,0.521967113,0.208910391,-0.115504757,0.289322092,-1.418053949,0.29983777
-0.945096254,-0.28972578,-0.151168078,0.014494419,-0.065590024,-0.026719987,-0.146700069,0.189606443,-0.052744012,0.293940303,-1.412189892,0.30820302
-0.945096254,-0.28972578,-0.151168078,0.014494419,-0.065590024,-0.026719987,-0.146700069,0.189606443,-0.052744012,0.293940303,-1.412189892,0.30820302
-0.945096254,-0.28972578,-0.151168078,0.014494419,-0.065590024,-0.026719987,-0.146700069,0.189606443,-0.052744012,0.293940303,-1.412189892,0.30820302
-0.940470517,-0.295440078,-0.168018058,-0.001850247,0.017623633,0.013308227,0.197492152,0.13202779,-0.16859892,0.299916123,-1.394008242,0.294941873
-0.940470517,-0.295440078,-0.168018058,-0.001850247,0.017623633,0.013308227,0.197492152,0.13202779,-0.16859892,0.299916123,-1.394008242,0.294941873
-0.940470517,-0.295440078,-0.168018058,-0.001850247,0.017623633,0.013308227,0.197492152,0.13202779,-0.16859892,0.299916123,-1.394008242,0.294941873
-0.940470517,-0.295440078,-0.168018058,-0.001850247,0.017623633,0.013308227,0.197492152,0.13202779,-0.16859892,0.299916123,-1.394008242,0.294941873
-0.940470517,-0.295440078,-0.168018058,-0.001850247,0.017623633,0.013308227,0.197492152,0.13202779,-0.16859892,0.299916123,-1.394008242,0.294941873
-0.940470517,-0.295440078,-0.168018058,-0.001850247,0.017623633,0.013308227,0.197492152,0.13202779,-0.16859892,0.299916123,-1.394008242,0.294941873
-0.937774241,-0.301522821,-0.172230616,-0.026580453,-0.030721784,0.026325345,-0.077789418,0.165281624,-0.061644778,0.306289408,-1.389161556,0.298815329
-0.937774241,-0.301522821,-0.172230616,-0.026580453,-0.030721784,0.026325345,-0.077789418,0.165281624,-0.061644778,0.306289408,-1.389161556,0.298815329
-0.937774241,-0.301522821,-0.172230616,-0.026580453,-0.030721784,0.026325345,-0.077789418,0.165281624,-0.061644778,0.306289408,-1.389161556,0.298815329
-0.937774241,-0.301522821,-0.172230616,-0.026580453,-0.030721784,0.026325345,-0.077789418,0.165281624,-0.061644778,0.306289408,-1.389161556,0.298815329
-0.937774241,-0.301522821,-0.172230616,-0.026580453,-0.030721784,0.026325345,-0.077789418,0.165281624,-0.061644778,0.306289408,-1.389161556,0.298815329
-0.937774241,-0.301522821,-0.172230616,-0.026580453,-0.030721784,0.026325345,-0.077789418,0.165281624,-0.061644778,0.306289408,-1.389161556,0.298815329
-0.937774241,-0.301522821,-0.172230616,-0.026580453,-0.030721784,0.026325345,-0.077789418,0.165281624,-0.061644778,0.306289408,-1.389161556,0.298815329
-0.937774241,-0.301522821,-0.172230616,-0.026580453,-0.030721784,0.026325345,-0.077789418,0.165281624,-0.061644778,0.306289408,-1.389161556,0.298815329
-0.937774241,-0.301522821,-0.172230616,-0.026580453,-0.030721784,0.026325345,-0.077789418,0.165281624,-0.061644778,0.306289408,-1.389161556,0.298815329
-0.936571777,-0.301513255,-0.178670242,0.044864178,0.005706638,-0.008326948,-0.141095117,0.095196776,-0.070679121,0.306279377,-1.382290856,0.29133027
-0.936571777,-0.301513255,-0.178670242,0.044864178,0.005706638,-0.008326948,-0.141095117,0.095196776,-0.070679121,0.306279377,-1.382290856,0.29133027
-0.936571777,-0.301513255,-0.178670242,0.044864178,0.005706638,-0.008326948,-0.141095117,0.095196776,-0.070679121,0.306279377,-1.382290856,0.29133027
-0.936571777,-0.301513255,-0.178670242,0.044864178,0.005706638,-0.008326948,-0.141095117,0.095196776,-0.070679121,0.306279377,-1.382290856,0.29133027
-0.936571777,-0.301513255,-0.178670242,0.044864178,0.005706638,-0.008326948,-0.141095117,0.095196776,-0.070679121,0.306279377,-1.382290856,0.29133027
-0.936571777,-0.301513255,-0.178670242,0.044864178,0.005706638,-0.008326948,-0.141095117,0.095196776,-0.070679121,0.306279377,-1.382290856,0.29133027
-0.936571777,-0.301513255,-0.178670242,0.044864178,0.005706638,-0.008326948,-0.141095117,0.095196776,-0.070679121,0.306279377,-1.382290856,0.29133027
-0.936571777,-0.301513255,-0.178670242,0.044864178,0.005706638,-0.008326948,-0.141095117,0.095196776,-0.070679121,0.306279377,-1.382290856,0.29133027
-0.936571777,-0.301513255,-0.178670242,0.044864178,0.005706638,-0.008326948,-0.141095117,0.095196776,-0.070679121,0.306279377,-1.382290856,0.29133027
-0.936571777,-0.301513255,-0.178670242,0.044864178,0.005706638,-0.008326948,-0.141095117,0.095196776,-0.070679121,0.306279377,-1.382290856,0.29133027
-0.936571777,-0.301513255,-0.178670242,0.044864178,0.005706638,-0.008326948,-0.141095117,0.095196776,-0.070679121,0.306279377,-1.382290856,0.29133027
-0.936571777,-0.301513255,-0.178670242,0.044864178,0.005706638,-0.008326948,-0.141095117,0.095196776,-0.070679121,0.306279377,-1.382290856,0.29133027
-0.936260462,-0.30361113,-0.17673862,0.054730535,0.024421334,-0.01750648,0.261337221,-0.025340702,-0.050517984,0.308480426,-1.384221046,0.292325738
-0.936260462,-0.30361113,-0.17673862,0.054730535,0.024421334,-0.01750648,0.261337221,-0.025340702,-0.050517984,0.308480426,-1.384221046,0.292325738
-0.936260462,-0.30361113,-0.17673862,0.054730535,0.024421334,-0.01750648,0.261337221,-0.025340702,-0.050517984,0.308480426,-1.384221046,0.292325738
-0.934809208,-0.309615463,-0.173982814,-0.001820564,-0.00109911,-0.035810709,0.343240649,0.087059036,-0.062996864,0.314788596,-1.386785846,0.30776425
-0.934809208,-0.309615463,-0.173982814,-0.001820564,-0.00109911,-0.035810709,0.343240649,0.087059036,-0.062996864,0.314788596,-1.386785846,0.30776425
-0.934809208,-0.309615463,-0.173982814,-0.001820564,-0.00109911,-0.035810709,0.343240649,0.087059036,-0.062996864,0.314788596,-1.386785846,0.30776425
-0.934809208,-0.309615463,-0.173982814,-0.001820564,-0.00109911,-0.035810709,0.343240649,0.087059036,-0.062996864,0.314788596,-1.386785846,0.30776425
-0.934809208,-0.309615463,-0.173982814,-0.001820564,-0.00109911,-0.035810709,0.343240649,0.087059036,-0.062996864,0.314788596,-1.386785846,0.30776425
-0.934809208,-0.309615463,-0.173982814,-0.001820564,-0.00109911,-0.035810709,0.343240649,0.087059036,-0.062996864,0.314788596,-1.386785846,0.30776425
-0.934199631,-0.311204374,-0.174420834,0.016399562,-0.034330666,-0.032931626,-0.08345741,-0.05125498,-0.043372508,0.316460062,-1.386215359,0.31081177
-0.934199631,-0.311204374,-0.174420834,0.016399562,-0.034330666,-0.032931626,-0.08345741,-0.05125498,-0.043372508,0.316460062,-1.386215359,0.31081177
-0.934199631,-0.311204374,-0.174420834,0.016399562,-0.034330666,-0.032931626,-0.08345741,-0.05125498,-0.043372508,0.316460062,-1.386215359,0.31081177
-0.934199631,-0.311204374,-0.174420834,0.016399562,-0.034330666,-0.032931626,-0.08345741,-0.05125498,-0.043372508,0.316460062,-1.386215359,0.31081177
-0.934199631,-0.311204374,-0.174420834,0.016399562,-0.034330666,-0.032931626,-0.08345741,-0.05125498,-0.043372508,0.316460062,-1.386215359,0.31081177
-0.934199631,-0.311204374,-0.174420834,0.016399562,-0.034330666,-0.032931626,-0.08345741,-0.05125498,-0.043372508,0.316460062,-1.386215359,0.31081177
-0.934199631,-0.311204374,-0.174420834,0.016399562,-0.034330666,-0.032931626,-0.08345741,-0.05125498,-0.043372508,0.316460062,-1.386215359,0.31081177
-0.934199631,-0.311204374,-0.174420834,0.016399562,-0.034330666,-0.032931626,-0.08345741,-0.05125498,-0.043372508,0.316460062,-1.386215359,0.31081177
-0.934199631,-0.311204374,-0.174420834,0.016399562,-0.034330666,-0.032931626,-0.08345741,-0.05125498,-0.043372508,0.316460062,-1.386215359,0.31081177
-0.934199631,-0.311204374,-0.174420834,0.016399562,-0.034330666,-0.032931626,-0.08345741,-0.05125498,-0.043372508,0.316460062,-1.386215359,0.31081177
-0.934199631,-0.311204374,-0.174420834,0.016399562,-0.034330666,-0.032931626,-0.08345741,-0.05125498,-0.043372508,0.316460062,-1.386215359,0.31081177
-0.934199631,-0.311204374,-0.174420834,0.016399562,-0.034330666,-0.032931626,-0.08345741,-0.05125498,-0.043372508,0.316460062,-1.386215359,0.31081177
-0.934199631,-0.311204374,-0.174420834,0.016399562,-0.034330666,-0.032931626,-0.08345741,-0.05125498,-0.043372508,0.316460062,-1.386215359,0.31081177
-0.934199631,-0.311204374,-0.174420834,0.016399562,-0.034330666,-0.032931626,-0.08345741,-0.05125498,-0.043372508,0.316460062,-1.386215359,0.31081177
-0.934282601,-0.311440051,-0.173554659,-0.011669815,0.012535959,-0.014480293,0.081024207,-0.056024387,-0.030885477,0.316708078,-1.387127407,0.309739992
-0.934282601,-0.311440051,-0.173554659,-0.011669815,0.012535959,-0.014480293,0.081024207,-0.056024387,-0.030885477,0.316708078,-1.387127407,0.309739992
-0.934282601,-0.311440051,-0.173554659,-0.011669815,0.012535959,-0.014480293,0.081024207,-0.056024387,-0.030885477,0.316708078,-1.387127407,0.309739992
-0.934282601,-0.311440051,-0.173554659,-0.011669815,0.012535959,-0.014480293,0.081024207,-0.056024387,-0.030885477,0.316708078,-1.387127407,0.309739992
-0.934282601,-0.311440051,-0.173554659,-0.011669815,0.012535959,-0.014480293,0.081024207,-0.056024387,-0.030885477,0.316708078,-1.387127407,0.309739992
-0.934282601,-0.311440051,-0.173554659,-0.011669815,0.012535959,-0.014480293,0.081024207,-0.056024387,-0.030885477,0.316708078,-1.387127407,0.309739992
-0.934282601,-0.311440051,-0.173554659,-0.011669815,0.012535959,-0.014480293,0.081024207,-0.056024387,-0.030885477,0.316708078,-1.387127407,0.309739992
-0.934282601,-0.311440051,-0.173554659,-0.011669815,0.012535959,-0.014480293,0.081024207,-0.056024387,-0.030885477,0.316708078,-1.387127407,0.309739992
-0.934282601,-0.311440051,-0.173554659,-0.011669815,0.012535959,-0.014480293,0.081024207,-0.056024387,-0.030885477,0.316708078,-1.387127407,0.309739992
-0.934282601,-0.311440051,-0.173554659,-0.011669815,0.012535959,-0.014480293,0.081024207,-0.056024387,-0.030885477,0.316708078,-1.387127407,0.309739992
-0.934282601,-0.311440051,-0.173554659,-0.011669815,0.012535959,-0.014480293,0.081024207,-0.056024387,-0.030885477,0.316708078,-1.387127407,0.309739992
-0.934282601,-0.311440051,-0.173554659,-0.011669815,0.012535959,-0.014480293,0.081024207,-0.056024387,-0.030885477,0.316708078,-1.387127407,0.309739992
-0.934282601,-0.311440051,-0.173554659,-0.011669815,0.012535959,-0.014480293,0.081024207,-0.056024387,-0.030885477,0.316708078,-1.387127407,0.309739992
-0.933581829,-0.314278841,-0.172201782,-0.003688514,-0.009176731,-0.0299474,0.109372497,-0.044477768,0.000997353,0.319696909,-1.388393714,0.314206039
-0.933581829,-0.314278841,-0.172201782,-0.003688514,-0.009176731,-0.0299474,0.109372497,-0.044477768,0.000997353,0.319696909,-1.388393714,0.314206039
-0.933581829,-0.314278841,-0.172201782,-0.003688514,-0.009176731,-0.0299474,0.109372497,-0.044477768,0.000997353,0.319696909,-1.388393714,0.314206039
-0.933581829,-0.314278841,-0.172201782,-0.003688514,-0.009176731,-0.0299474,0.109372497,-0.044477768,0.000997353,0.319696909,-1.388393714,0.314206039
-0.933581829,-0.314278841,-0.172201782,-0.003688514,-0.009176731,-0.0299474,0.109372497,-0.044477768,0.000997353,0.319696909,-1.388393714,0.314206039
-0.933581829,-0.314278841,-0.172201782,-0.003688514,-0.009176731,-0.0299474,0.109372497,-0.044477768,0.000997353,0.319696909,-1.388393714,0.314206039
-0.933581829,-0.314278841,-0.172201782,-0.003688514,-0.009176731,-0.0299474,0.109372497,-0.044477768,0.000997353,0.319696909,-1.388393714,0.314206039
-0.933581829,-0.314278841,-0.172201782,-0.003688514,-0.009176731,-0.0299474,0.109372497,-0.044477768,0.000997353,0.319696909,-1.388393714,0.314206039
-0.933581829,-0.314278841,-0.172201782,-0.003688514,-0.009176731,-0.0299474,0.109372497,-0.044477768,0.000997353,0.319696909,-1.388393714,0.314206039
-0.933581829,-0.314278841,-0.172201782,-0.003688514,-0.009176731,-0.0299474,0.109372497,-0.044477768,0.000997353,0.319696909,-1.388393714,0.314206039
-0.933581829,-0.314278841,-0.172201782,-0.003688514,-0.009176731,-0.0299474,0.109372497,-0.044477768,0.000997353,0.319696909,-1.388393714,0.314206039
-0.933581829,-0.314278841,-0.172201782,-0.003688514,-0.009176731,-0.0299474,0.109372497,-0.044477768,0.000997353,0.319696909,-1.388393714,0.314206039
-0.933581829,-0.314278841,-0.172201782,-0.003688514,-0.009176731,-0.0299474,0.109372497,-0.044477768,0.000997353,0.319696909,-1.388393714,0.314206039
-0.933581829,-0.314278841,-0.172201782,-0.003688514,-0.009176731,-0.0299474,0.109372497,-0.044477768,0.000997353,0.319696909,-1.388393714,0.314206039
-0.933986068,-0.313560009,-0.171318203,-0.007373631,-0.036110163,0.011145949,-0.076092549,-0.032303054,0.039292917,0.318939795,-1.389385992,0.314013863
-0.933986068,-0.313560009,-0.171318203,-0.007373631,-0.036110163,0.011145949,-0.076092549,-0.032303054,0.039292917,0.318939795,-1.389385992,0.314013863
-0.933986068,-0.313560009,-0.171318203,-0.007373631,-0.036110163,0.011145949,-0.076092549,-0.032303054,0.039292917,0.318939795,-1.389385992,0.314013863
-0.934671223,-0.311327666,-0.171652943,0.011805356,0.006671011,0.032659769,-0.027534025,-0.061290484,0.036750823,0.316589813,-1.389169604,0.311091644
-0.934671223,-0.311327666,-0.171652943,0.011805356,0.006671011,0.032659769,-0.027534025,-0.061290484,0.036750823,0.316589813,-1.389169604,0.311091644
-0.934671223,-0.311327666,-0.171652943,0.011805356,0.006671011,0.032659769,-0.027534025,-0.061290484,0.036750823,0.316589813,-1.389169604,0.311091644
-0.934671223,-0.311327666,-0.171652943,0.011805356,0.006671011,0.032659769,-0.027534025,-0.061290484,0.036750823,0.316589813,-1.389169604,0.311091644
-0.934671223,-0.311327666,-0.171652943,0.011805356,0.006671011,0.032659769,-0.027534025,-0.061290484,0.036750823,0.316589813,-1.389169604,0.311091644
-0.934671223,-0.311327666,-0.171652943,0.011805356,0.006671011,0.032659769,-0.027534025,-0.061290484,0.036750823,0.316589813,-1.389169604,0.311091644
-0.934671223,-0.311327666,-0.171652943,0.011805356,0.006671011,0.032659769,-0.027534025,-0.061290484,0.036750823,0.316589813,-1.389169604,0.311091644
-0.934671223,-0.311327666,-0.171652943,0.011805356,0.006671011,0.032659769,-0.027534025,-0.061290484,0.036750823,0.316589813,-1.389169604,0.311091644
-0.934671223,-0.311327666,-0.171652943,0.011805356,0.006671011,0.032659769,-0.027534025,-0.061290484,0.036750823,0.316589813,-1.389169604,0.311091644
-0.934671223,-0.311327666,-0.171652943,0.011805356,0.006671011,0.032659769,-0.027534025,-0.061290484,0.036750823,0.316589813,-1.389169604,0.311091644
-0.934671223,-0.311327666,-0.171652943,0.011805356,0.006671011,0.032659769,-0.027534025,-0.061290484,0.036750823,0.316589813,-1.389169604,0.311091644
-0.934671223,-0.311327666,-0.171652943,0.011805356,0.006671011,0.032659769,-0.027534025,-0.061290484,0.036750823,0.316589813,-1.389169604,0.311091644
-0.934818625,-0.31091857,-0.171591163,-0.003549933,0.001074016,0.029881716,-0.418084145,0.203237936,0.091986328,0.316159351,-1.389261562,0.310039922
-0.934818625,-0.31091857,-0.171591163,-0.003549933,0.001074016,0.029881716,-0.418084145,0.203237936,0.091986328,0.316159351,-1.389261562,0.310039922
-0.934818625,-0.31091857,-0.171591163,-0.003549933,0.001074016,0.029881716,-0.418084145,0.203237936,0.091986328,0.316159351,-1.389261562,0.310039922
-0.934818625,-0.31091857,-0.171591163,-0.003549933,0.001074016,0.029881716,-0.418084145,0.203237936,0.091986328,0.316159351,-1.389261562,0.310039922
-0.934818625,-0.31091857,-0.171591163,-0.003549933,0.001074016,0.029881716,-0.418084145,0.203237936,0.091986328,0.316159351,-1.389261562,0.310039922
-0.934818625,-0.31091857,-0.171591163,-0.003549933,0.001074016,0.029881716,-0.418084145,0.203237936,0.091986328,0.316159351,-1.389261562,0.310039922
-0.934818625,-0.31091857,-0.171591163,-0.003549933,0.001074016,0.029881716,-0.418084145,0.203237936,0.091986328,0.316159351,-1.389261562,0.310039922
-0.934818625,-0.31091857,-0.171591163,-0.003549933,0.001074016,0.029881716,-0.418084145,0.203237936,0.091986328,0.316159351,-1.389261562,0.310039922
-0.934818625,-0.31091857,-0.171591163,-0.003549933,0.001074016,0.029881716,-0.418084145,0.203237936,0.091986328,0.316159351,-1.389261562,0.310039922
-0.934818625,-0.31091857,-0.171591163,-0.003549933,0.001074016,0.029881716,-0.418084145,0.203237936,0.091986328,0.316159351,-1.389261562,0.310039922
-0.934818625,-0.31091857,-0.171591163,-0.003549933,0.001074016,0.029881716,-0.418084145,0.203237936,0.091986328,0.316159351,-1.389261562,0.310039922
-0.934818625,-0.31091857,-0.171591163,-0.003549933,0.001074016,0.029881716,-0.418084145,0.203237936,0.091986328,0.316159351,-1.389261562,0.310039922
-0.934948802,-0.306776941,-0.178209215,0.033323467,-0.021683365,-0.03672719,-0.081507169,-0.132703811,0.045202419,0.311804826,-1.382447127,0.298025642
-0.934948802,-0.306776941,-0.178209215,0.033323467,-0.021683365,-0.03672719,-0.081507169,-0.132703811,0.045202419,0.311804826,-1.382447127,0.298025642
-0.934948802,-0.306776941,-0.178209215,0.033323467,-0.021683365,-0.03672719,-0.081507169,-0.132703811,0.045202419,0.311804826,-1.382447127,0.298025642
-0.934948802,-0.306776941,-0.178209215,0.033323467,-0.021683365,-0.03672719,-0.081507169,-0.132703811,0.045202419,0.311804826,-1.382447127,0.298025642
-0.934948802,-0.306776941,-0.178209215,0.033323467,-0.021683365,-0.03672719,-0.081507169,-0.132703811,0.045202419,0.311804826,-1.382447127,0.298025642
-0.934948802,-0.306776941,-0.178209215,0.033323467,-0.021683365,-0.03672719,-0.081507169,-0.132703811,0.045202419,0.311804826,-1.382447127,0.298025642
-0.934948802,-0.306776941,-0.178209215,0.033323467,-0.021683365,-0.03672719,-0.081507169,-0.132703811,0.045202419,0.311804826,-1.382447127,0.298025642
-0.934948802,-0.306776941,-0.178209215,0.033323467,-0.021683365,-0.03672719,-0.081507169,-0.132703811,0.045202419,0.311804826,-1.382447127,0.298025642
-0.934948802,-0.306776941,-0.178209215,0.033323467,-0.021683365,-0.03672719,-0.081507169,-0.132703811,0.045202419,0.311804826,-1.382447127,0.298025642
-0.934948802,-0.306776941,-0.178209215,0.033323467,-0.021683365,-0.03672719,-0.081507169,-0.132703811,0.045202419,0.311804826,-1.382447127,0.298025642
-0.934948802,-0.306776941,-0.178209215,0.033323467,-0.021683365,-0.03672719,-0.081507169,-0.132703811,0.045202419,0.311804826,-1.382447127,0.298025642
-0.934948802,-0.306776941,-0.178209215,0.033323467,-0.021683365,-0.03672719,-0.081507169,-0.132703811,0.045202419,0.311804826,-1.382447127,0.298025642
-0.934948802,-0.306776941,-0.178209215,0.033323467,-0.021683365,-0.03672719,-0.081507169,-0.132703811,0.045202419,0.311804826,-1.382447127,0.298025642
-0.934948802,-0.306776941,-0.178209215,0.033323467,-0.021683365,-0.03672719,-0.081507169,-0.132703811,0.045202419,0.311804826,-1.382447127,0.298025642
-0.934948802,-0.306776941,-0.178209215,0.033323467,-0.021683365,-0.03672719,-0.081507169,-0.132703811,0.045202419,0.311804826,-1.382447127,0.298025642
-0.935864866,-0.309554547,-0.168324038,-0.05116415,0.152053624,0.032992959,0.294912428,0.14824073,-0.104235485,0.314724526,-1.392839634,0.308329369
-0.935864866,-0.309554547,-0.168324038,-0.05116415,0.152053624,0.032992959,0.294912428,0.14824073,-0.104235485,0.314724526,-1.392839634,0.308329369
-0.935864866,-0.309554547,-0.168324038,-0.05116415,0.152053624,0.032992959,0.294912428,0.14824073,-0.104235485,0.314724526,-1.392839634,0.308329369
-0.935864866,-0.309554547,-0.168324038,-0.05116415,0.152053624,0.032992959,0.294912428,0.14824073,-0.104235485,0.314724526,-1.392839634,0.308329369
-0.935864866,-0.309554547,-0.168324038,-0.05116415,0.152053624,0.032992959,0.294912428,0.14824073,-0.104235485,0.314724526,-1.392839634,0.308329369
-0.935864866,-0.309554547,-0.168324038,-0.05116415,0.152053624,0.032992959,0.294912428,0.14824073,-0.104235485,0.314724526,-1.392839634,0.308329369
-0.935864866,-0.309554547,-0.168324038,-0.05116415,0.152053624,0.032992959,0.294912428,0.14824073,-0.104235485,0.314724526,-1.392839634,0.308329369
-0.935864866,-0.309554547,-0.168324038,-0.05116415,0.152053624,0.032992959,0.294912428,0.14824073,-0.104235485,0.314724526,-1.392839634,0.308329369
-0.935864866,-0.309554547,-0.168324038,-0.05116415,0.152053624,0.032992959,0.294912428,0.14824073,-0.104235485,0.314724526,-1.392839634,0.308329369
-0.935864866,-0.309554547,-0.168324038,-0.05116415,0.152053624,0.032992959,0.294912428,0.14824073,-0.104235485,0.314724526,-1.392839634,0.308329369
-0.935864866,-0.309554547,-0.168324038,-0.05116415,0.152053624,0.032992959,0.294912428,0.14824073,-0.104235485,0.314724526,-1.392839634,0.308329369
-0.935864866,-0.309554547,-0.168324038,-0.05116415,0.152053624,0.032992959,0.294912428,0.14824073,-0.104235485,0.314724526,-1.392839634,0.308329369
-0.935431778,-0.310601771,-0.168801993,0.06099683,-0.008367807,-0.060690641,-0.136010766,-0.029291235,-0.000540623,0.31582604,-1.3922641,0.309227234
-0.935431778,-0.310601771,-0.168801993,0.06099683,-0.008367807,-0.060690641,-0.136010766,-0.029291235,-0.000540623,0.31582604,-1.3922641,0.309227234
-0.935431778,-0.310601771,-0.168801993,0.06099683,-0.008367807,-0.060690641,-0.136010766,-0.029291235,-0.000540623,0.31582604,-1.3922641,0.309227234
-0.935431778,-0.310601771,-0.168801993,0.06099683,-0.008367807,-0.060690641,-0.136010766,-0.029291235,-0.000540623,0.31582604,-1.3922641,0.309227234
-0.935431778,-0.310601771,-0.168801993,0.06099683,-0.008367807,-0.060690641,-0.136010766,-0.029291235,-0.000540623,0.31582604,-1.3922641,0.309227234
-0.935431778,-0.310601771,-0.168801993,0.06099683,-0.008367807,-0.060690641,-0.136010766,-0.029291235,-0.000540623,0.31582604,-1.3922641,0.309227234
-0.935431778,-0.310601771,-0.168801993,0.06099683,-0.008367807,-0.060690641,-0.136010766,-0.029291235,-0.000540623,0.31582604,-1.3922641,0.309227234
-0.935431778,-0.310601771,-0.168801993,0.06099683,-0.008367807,-0.060690641,-0.136010766,-0.029291235,-0.000540623,0.31582604,-1.3922641,0.309227234
-0.935431778,-0.310601771,-0.168801993,0.06099683,-0.008367807,-0.060690641,-0.136010766,-0.029291235,-0.000540623,0.31582604,-1.3922641,0.309227234
-0.935431778,-0.310601771,-0.168801993,0.06099683,-0.008367807,-0.060690641,-0.136010766,-0.029291235,-0.000540623,0.31582604,-1.3922641,0.309227234
-0.935431778,-0.310601771,-0.168801993,0.06099683,-0.008367807,-0.060690641,-0.136010766,-0.029291235,-0.000540623,0.31582604,-1.3922641,0.309227234
-0.935431778,-0.310601771,-0.168801993,0.06099683,-0.008367807,-0.060690641,-0.136010766,-0.029291235,-0.000540623,0.31582604,-1.3922641,0.309227234
-0.935431778,-0.310601771,-0.168801993,0.06099683,-0.008367807,-0.060690641,-0.136010766,-0.029291235,-0.000540623,0.31582604,-1.3922641,0.309227234
-0.935431778,-0.310601771,-0.168801993,0.06099683,-0.008367807,-0.060690641,-0.136010766,-0.029291235,-0.000540623,0.31582604,-1.3922641,0.309227234
-0.935737252,-0.307214767,-0.173247635,-0.003181756,-0.049749315,-0.018189251,-0.09413898,0.005722673,0.045271233,0.312264862,-1.387723784,0.303599924
-0.935260117,-0.307224751,-0.175787598,0.000323892,0.014454514,0.006521583,-0.009505544,0.017265527,-0.001708365,0.312275377,-1.38500806,0.301224717
-0.935260117,-0.307224751,-0.175787598,0.000323892,0.014454514,0.006521583,-0.009505544,0.017265527,-0.001708365,0.312275377,-1.38500806,0.301224717
-0.935260117,-0.307224751,-0.175787598,0.000323892,0.014454514,0.006521583,-0.009505544,0.017265527,-0.001708365,0.312275377,-1.38500806,0.301224717
-0.935260117,-0.307224751,-0.175787598,0.000323892,0.014454514,0.006521583,-0.009505544,0.017265527,-0.001708365,0.312275377,-1.38500806,0.301224717
-0.935260117,-0.307224751,-0.175787598,0.000323892,0.014454514,0.006521583,-0.009505544,0.017265527,-0.001708365,0.312275377,-1.38500806,0.301224717
-0.935260117,-0.307224751,-0.175787598,0.000323892,0.014454514,0.006521583,-0.009505544,0.017265527,-0.001708365,0.312275377,-1.38500806,0.301224717
-0.935260117,-0.307224751,-0.175787598,0.000323892,0.014454514,0.006521583,-0.009505544,0.017265527,-0.001708365,0.312275377,-1.38500806,0.301224717
-0.935260117,-0.307224751,-0.175787598,0.000323892,0.014454514,0.006521583,-0.009505544,0.017265527,-0.001708365,0.312275377,-1.38500806,0.301224717
-0.935260117,-0.307224751,-0.175787598,0.000323892,0.014454514,0.006521583,-0.009505544,0.017265527,-0.001708365,0.312275377,-1.38500806,0.301224717
-0.935260117,-0.307224751,-0.175787598,0.000323892,0.014454514,0.006521583,-0.009505544,0.017265527,-0.001708365,0.312275377,-1.38500806,0.301224717
-0.935260117,-0.307224751,-0.175787598,0.000323892,0.014454514,0.006521583,-0.009505544,0.017265527,-0.001708365,0.312275377,-1.38500806,0.301224717
-0.935260117,-0.307224751,-0.175787598,0.000323892,0.014454514,0.006521583,-0.009505544,0.017265527,-0.001708365,0.312275377,-1.38500806,0.301224717
-0.935260117,-0.307224751,-0.175787598,0.000323892,0.014454514,0.006521583,-0.009505544,0.017265527,-0.001708365,0.312275377,-1.38500806,0.301224717
-0.935151458,-0.30654186,-0.177549243,0.010606468,-0.002875745,-0.000246406,-0.160672158,-0.019114269,0.01692231,0.311557841,-1.383168076,0.298197877
-0.935151458,-0.30654186,-0.177549243,0.010606468,-0.002875745,-0.000246406,-0.160672158,-0.019114269,0.01692231,0.311557841,-1.383168076,0.298197877
-0.935151458,-0.30654186,-0.177549243,0.010606468,-0.002875745,-0.000246406,-0.160672158,-0.019114269,0.01692231,0.311557841,-1.383168076,0.298197877
-0.935151458,-0.30654186,-0.177549243,0.010606468,-0.002875745,-0.000246406,-0.160672158,-0.019114269,0.01692231,0.311557841,-1.383168076,0.298197877
-0.935151458,-0.30654186,-0.177549243,0.010606468,-0.002875745,-0.000246406,-0.160672158,-0.019114269,0.01692231,0.311557841,-1.383168076,0.298197877
-0.935151458,-0.30654186,-0.177549243,0.010606468,-0.002875745,-0.000246406,-0.160672158,-0.019114269,0.01692231,0.311557841,-1.383168076,0.298197877
-0.935151458,-0.30654186,-0.177549243,0.010606468,-0.002875745,-0.000246406,-0.160672158,-0.019114269,0.01692231,0.311557841,-1.383168076,0.298197877
-0.935151458,-0.30654186,-0.177549243,0.010606468,-0.002875745,-0.000246406,-0.160672158,-0.019114269,0.01692231,0.311557841,-1.383168076,0.298197877
-0.935151458,-0.30654186,-0.177549243,0.010606468,-0.002875745,-0.000246406,-0.160672158,-0.019114269,0.01692231,0.311557841,-1.383168076,0.298197877
-0.935151458,-0.30654186,-0.177549243,0.010606468,-0.002875745,-0.000246406,-0.160672158,-0.019114269,0.01692231,0.311557841,-1.383168076,0.298197877
-0.935151458,-0.30654186,-0.177549243,0.010606468,-0.002875745,-0.000246406,-0.160672158,-0.019114269,0.01692231,0.311557841,-1.383168076,0.298197877
-0.935151458,-0.30654186,-0.177549243,0.010606468,-0.002875745,-0.000246406,-0.160672158,-0.019114269,0.01692231,0.311557841,-1.383168076,0.298197877
-0.935151458,-0.30654186,-0.177549243,0.010606468,-0.002875745,-0.000246406,-0.160672158,-0.019114269,0.01692231,0.311557841,-1.383168076,0.298197877
-0.935391486,-0.304536372,-0.179723397,-0.019488215,-0.011442602,0.014760554,-0.240284815,0.003265229,0.016292261,0.309451638,-1.380972562,0.28938139
-0.935391486,-0.304536372,-0.179723397,-0.019488215,-0.011442602,0.014760554,-0.240284815,0.003265229,0.016292261,0.309451638,-1.380972562,0.28938139
-0.935391486,-0.304536372,-0.179723397,-0.019488215,-0.011442602,0.014760554,-0.240284815,0.003265229,0.016292261,0.309451638,-1.380972562,0.28938139
-0.935391486,-0.304536372,-0.179723397,-0.019488215,-0.011442602,0.014760554,-0.240284815,0.003265229,0.016292261,0.309451638,-1.380972562,0.28938139
-0.935391486,-0.304536372,-0.179723397,-0.019488215,-0.011442602,0.014760554,-0.240284815,0.003265229,0.016292261,0.309451638,-1.380972562,0.28938139
-0.935391486,-0.304536372,-0.179723397,-0.019488215,-0.011442602,0.014760554,-0.240284815,0.003265229,0.016292261,0.309451638,-1.380972562,0.28938139
-0.935391486,-0.304536372,-0.179723397,-0.019488215,-0.011442602,0.014760554,-0.240284815,0.003265229,0.016292261,0.309451638,-1.380972562,0.28938139
-0.935391486,-0.304536372,-0.179723397,-0.019488215,-0.011442602,0.014760554,-0.240284815,0.003265229,0.016292261,0.309451638,-1.380972562,0.28938139
-0.935391486,-0.304536372,-0.179723397,-0.019488215,-0.011442602,0.014760554,-0.240284815,0.003265229,0.016292261,0.309451638,-1.380972562,0.28938139
-0.935391486,-0.304536372,-0.179723397,-0.019488215,-0.011442602,0.014760554,-0.240284815,0.003265229,0.016292261,0.309451638,-1.380972562,0.28938139
-0.935207307,-0.303840846,-0.181846008,0.019557953,0.037514001,0.008597612,0.00568522,0.010632501,-0.01734128,0.308721533,-1.37874816,0.283779331
-0.935207307,-0.303840846,-0.181846008,0.019557953,0.037514001,0.008597612,0.00568522,0.010632501,-0.01734128,0.308721533,-1.37874816,0.283779331
-0.935207307,-0.303840846,-0.181846008,0.019557953,0.037514001,0.008597612,0.00568522,0.010632501,-0.01734128,0.308721533,-1.37874816,0.283779331
-0.935207307,-0.303840846,-0.181846008,0.019557953,0.037514001,0.008597612,0.00568522,0.010632501,-0.01734128,0.308721533,-1.37874816,0.283779331
-0.935207307,-0.303840846,-0.181846008,0.019557953,0.037514001,0.008597612,0.00568522,0.010632501,-0.01734128,0.308721533,-1.37874816,0.283779331
-0.935207307,-0.303840846,-0.181846008,0.019557953,0.037514001,0.008597612,0.00568522,0.010632501,-0.01734128,0.308721533,-1.37874816,0.283779331
-0.935207307,-0.303840846,-0.181846008,0.019557953,0.037514001,0.008597612,0.00568522,0.010632501,-0.01734128,0.308721533,-1.37874816,0.283779331
-0.935207307,-0.303840846,-0.181846008,0.019557953,0.037514001,0.008597612,0.00568522,0.010632501,-0.01734128,0.308721533,-1.37874816,0.283779331
-0.935207307,-0.303840846,-0.181846008,0.019557953,0.037514001,0.008597612,0.00568522,0.010632501,-0.01734128,0.308721533,-1.37874816,0.283779331
-0.935207307,-0.303840846,-0.181846008,0.019557953,0.037514001,0.008597612,0.00568522,0.010632501,-0.01734128,0.308721533,-1.37874816,0.283779331
-0.935207307,-0.303840846,-0.181846008,0.019557953,0.037514001,0.008597612,0.00568522,0.010632501,-0.01734128,0.308721533,-1.37874816,0.283779331
-0.935207307,-0.303840846,-0.181846008,0.019557953,0.037514001,0.008597612,0.00568522,0.010632501,-0.01734128,0.308721533,-1.37874816,0.283779331
-0.935207307,-0.303840846,-0.181846008,0.019557953,0.037514001,0.008597612,0.00568522,0.010632501,-0.01734128,0.308721533,-1.37874816,0.283779331
-0.935274541,-0.304684937,-0.180079728,0.013597965,0.018811554,-0.009892285,0.160260618,-0.006525193,0.026122842,0.309607614,-1.380581987,0.288187453
-0.935274541,-0.304684937,-0.180079728,0.013597965,0.018811554,-0.009892285,0.160260618,-0.006525193,0.026122842,0.309607614,-1.380581987,0.288187453
-0.935274541,-0.304684937,-0.180079728,0.013597965,0.018811554,-0.009892285,0.160260618,-0.006525193,0.026122842,0.309607614,-1.380581987,0.288187453
-0.935274541,-0.304684937,-0.180079728,0.013597965,0.018811554,-0.009892285,0.160260618,-0.006525193,0.026122842,0.309607614,-1.380581987,0.288187453
-0.935274541,-0.304684937,-0.180079728,0.013597965,0.018811554,-0.009892285,0.160260618,-0.006525193,0.026122842,0.309607614,-1.380581987,0.288187453
-0.935274541,-0.304684937,-0.180079728,0.013597965,0.018811554,-0.009892285,0.160260618,-0.006525193,0.026122842,0.309607614,-1.380581987,0.288187453
-0.935274541,-0.304684937,-0.180079728,0.013597965,0.018811554,-0.009892285,0.160260618,-0.006525193,0.026122842,0.309607614,-1.380581987,0.288187453
-0.935274541,-0.304684937,-0.180079728,0.013597965,0.018811554,-0.009892285,0.160260618,-0.006525193,0.026122842,0.309607614,-1.380581987,0.288187453
-0.935274541,-0.304684937,-0.180079728,0.013597965,0.018811554,-0.009892285,0.160260618,-0.006525193,0.026122842,0.309607614,-1.380581987,0.288187453
-0.935274541,-0.304684937,-0.180079728,0.013597965,0.018811554,-0.009892285,0.160260618,-0.006525193,0.026122842,0.309607614,-1.380581987,0.288187453
-0.935274541,-0.304684937,-0.180079728,0.013597965,0.018811554,-0.009892285,0.160260618,-0.006525193,0.026122842,0.309607614,-1.380581987,0.288187453
-0.935274541,-0.304684937,-0.180079728,0.013597965,0.018811554,-0.009892285,0.160260618,-0.006525193,0.026122842,0.309607614,-1.380581987,0.288187453
-0.935274541,-0.304684937,-0.180079728,0.013597965,0.018811554,-0.009892285,0.160260618,-0.006525193,0.026122842,0.309607614,-1.380581987,0.288187453
-0.935274541,-0.304684937,-0.180079728,0.013597965,0.018811554,-0.009892285,0.160260618,-0.006525193,0.026122842,0.309607614,-1.380581987,0.288187453
-0.935274541,-0.304684937,-0.180079728,0.013597965,0.018811554,-0.009892285,0.160260618,-0.006525193,0.026122842,0.309607614,-1.380581987,0.288187453
-0.936206818,-0.303030998,-0.178013191,0.012623131,-0.023461193,-0.023296297,-0.028537985,-0.013133585,0.052698847,0.30787161,-1.382896354,0.291721728