gravityX,gravityY,gravityZ,accelX,accelY,accelZ,rotRateX,rotRatY,rotRateZ,attPitch,attRoll,attYaw
-0.053987663,-0.268260032,-0.961832583,0.007860336,0.031870842,0.010019839,0.130722135,0.057020761,-0.052849047,0.271586415,-0.056071164,0.006222469
-0.052937932,-0.271138996,-0.961083353,0.014470521,0.037236959,-0.006918967,0.156910852,0.032607429,-0.022330072,0.274576151,-0.055025917,0.005612884
-0.052937932,-0.271138996,-0.961083353,0.014470521,0.037236959,-0.006918967,0.156910852,0.032607429,-0.022330072,0.274576151,-0.055025917,0.005612884
-0.052937932,-0.271138996,-0.961083353,0.014470521,0.037236959,-0.006918967,0.156910852,0.032607429,-0.022330072,0.274576151,-0.055025917,0.005612884
-0.052937932,-0.271138996,-0.961083353,0.014470521,0.037236959,-0.006918967,0.156910852,0.032607429,-0.022330072,0.274576151,-0.055025917,0.005612884
-0.052937932,-0.271138996,-0.961083353,0.014470521,0.037236959,-0.006918967,0.156910852,0.032607429,-0.022330072,0.274576151,-0.055025917,0.005612884
-0.052937932,-0.271138996,-0.961083353,0.014470521,0.037236959,-0.006918967,0.156910852,0.032607429,-0.022330072,0.274576151,-0.055025917,0.005612884
-0.052937932,-0.271138996,-0.961083353,0.014470521,0.037236959,-0.006918967,0.156910852,0.032607429,-0.022330072,0.274576151,-0.055025917,0.005612884
-0.052937932,-0.271138996,-0.961083353,0.014470521,0.037236959,-0.006918967,0.156910852,0.032607429,-0.022330072,0.274576151,-0.055025917,0.005612884
-0.052937932,-0.271138996,-0.961083353,0.014470521,0.037236959,-0.006918967,0.156910852,0.032607429,-0.022330072,0.274576151,-0.055025917,0.005612884
-0.052937932,-0.271138996,-0.961083353,0.014470521,0.037236959,-0.006918967,0.156910852,0.032607429,-0.022330072,0.274576151,-0.055025917,0.005612884
-0.052937932,-0.271138996,-0.961083353,0.014470521,0.037236959,-0.006918967,0.156910852,0.032607429,-0.022330072,0.274576151,-0.055025917,0.005612884
-0.052937932,-0.271138996,-0.961083353,0.014470521,0.037236959,-0.006918967,0.156910852,0.032607429,-0.022330072,0.274576151,-0.055025917,0.005612884
-0.052355133,-0.273514271,-0.960442007,0.013185814,0.011154622,0.002907276,0.09515059,0.030860357,0.005150448,0.277044749,-0.054457599,0.005642305
-0.052355133,-0.273514271,-0.960442007,0.013185814,0.011154622,0.002907276,0.09515059,0.030860357,0.005150448,0.277044749,-0.054457599,0.005642305
-0.052355133,-0.273514271,-0.960442007,0.013185814,0.011154622,0.002907276,0.09515059,0.030860357,0.005150448,0.277044749,-0.054457599,0.005642305
-0.052355133,-0.273514271,-0.960442007,0.013185814,0.011154622,0.002907276,0.09515059,0.030860357,0.005150448,0.277044749,-0.054457599,0.005642305
-0.052355133,-0.273514271,-0.960442007,0.013185814,0.011154622,0.002907276,0.09515059,0.030860357,0.005150448,0.277044749,-0.054457599,0.005642305
-0.052355133,-0.273514271,-0.960442007,0.013185814,0.011154622,0.002907276,0.09515059,0.030860357,0.005150448,0.277044749,-0.054457599,0.005642305
-0.052355133,-0.273514271,-0.960442007,0.013185814,0.011154622,0.002907276,0.09515059,0.030860357,0.005150448,0.277044749,-0.054457599,0.005642305
-0.052355133,-0.273514271,-0.960442007,0.013185814,0.011154622,0.002907276,0.09515059,0.030860357,0.005150448,0.277044749,-0.054457599,0.005642305
-0.052355133,-0.273514271,-0.960442007,0.013185814,0.011154622,0.002907276,0.09515059,0.030860357,0.005150448,0.277044749,-0.054457599,0.005642305
-0.051781606,-0.274587363,-0.960166872,0.011223737,-0.018503487,0.014640808,0.017376563,0.026984636,-0.00244622,0.27816054,-0.053877606,0.005768742
-0.051781606,-0.274587363,-0.960166872,0.011223737,-0.018503487,0.014640808,0.017376563,0.026984636,-0.00244622,0.27816054,-0.053877606,0.005768742
-0.051781606,-0.274587363,-0.960166872,0.011223737,-0.018503487,0.014640808,0.017376563,0.026984636,-0.00244622,0.27816054,-0.053877606,0.005768742
-0.051781606,-0.274587363,-0.960166872,0.011223737,-0.018503487,0.014640808,0.017376563,0.026984636,-0.00244622,0.27816054,-0.053877606,0.005768742
-0.051781606,-0.274587363,-0.960166872,0.011223737,-0.018503487,0.014640808,0.017376563,0.026984636,-0.00244622,0.27816054,-0.053877606,0.005768742
-0.051781606,-0.274587363,-0.960166872,0.011223737,-0.018503487,0.014640808,0.017376563,0.026984636,-0.00244622,0.27816054,-0.053877606,0.005768742
-0.051781606,-0.274587363,-0.960166872,0.011223737,-0.018503487,0.014640808,0.017376563,0.026984636,-0.00244622,0.27816054,-0.053877606,0.005768742
-0.051781606,-0.274587363,-0.960166872,0.011223737,-0.018503487,0.014640808,0.017376563,0.026984636,-0.00244622,0.27816054,-0.053877606,0.005768742
-0.051781606,-0.274587363,-0.960166872,0.011223737,-0.018503487,0.014640808,0.017376563,0.026984636,-0.00244622,0.27816054,-0.053877606,0.005768742
-0.051390946,-0.274286807,-0.960273802,0.012694653,-0.004491329,0.013999999,-0.044063374,0.008266742,-0.016422011,0.277847975,-0.05346597,0.005552858
-0.051390946,-0.274286807,-0.960273802,0.012694653,-0.004491329,0.013999999,-0.044063374,0.008266742,-0.016422011,0.277847975,-0.05346597,0.005552858
-0.051390946,-0.274286807,-0.960273802,0.012694653,-0.004491329,0.013999999,-0.044063374,0.008266742,-0.016422011,0.277847975,-0.05346597,0.005552858
-0.051390946,-0.274286807,-0.960273802,0.012694653,-0.004491329,0.013999999,-0.044063374,0.008266742,-0.016422011,0.277847975,-0.05346597,0.005552858
-0.051390946,-0.274286807,-0.960273802,0.012694653,-0.004491329,0.013999999,-0.044063374,0.008266742,-0.016422011,0.277847975,-0.05346597,0.005552858
-0.051390946,-0.274286807,-0.960273802,0.012694653,-0.004491329,0.013999999,-0.044063374,0.008266742,-0.016422011,0.277847975,-0.05346597,0.005552858
-0.051390946,-0.274286807,-0.960273802,0.012694653,-0.004491329,0.013999999,-0.044063374,0.008266742,-0.016422011,0.277847975,-0.05346597,0.005552858
-0.051390946,-0.274286807,-0.960273802,0.012694653,-0.004491329,0.013999999,-0.044063374,0.008266742,-0.016422011,0.277847975,-0.05346597,0.005552858
-0.04108528,-0.241017178,-0.969650805,0.00119881,-0.026820317,0.018616259,-0.046167206,-0.003253064,-0.002073165,0.243413789,-0.042345884,0.002450754
-0.04108528,-0.241017178,-0.969650805,0.00119881,-0.026820317,0.018616259,-0.046167206,-0.003253064,-0.002073165,0.243413789,-0.042345884,0.002450754
-0.04108528,-0.241017178,-0.969650805,0.00119881,-0.026820317,0.018616259,-0.046167206,-0.003253064,-0.002073165,0.243413789,-0.042345884,0.002450754
-0.04108528,-0.241017178,-0.969650805,0.00119881,-0.026820317,0.018616259,-0.046167206,-0.003253064,-0.002073165,0.243413789,-0.042345884,0.002450754
-0.04108528,-0.241017178,-0.969650805,0.00119881,-0.026820317,0.018616259,-0.046167206,-0.003253064,-0.002073165,0.243413789,-0.042345884,0.002450754
-0.04108528,-0.241017178,-0.969650805,0.00119881,-0.026820317,0.018616259,-0.046167206,-0.003253064,-0.002073165,0.243413789,-0.042345884,0.002450754
-0.04108528,-0.241017178,-0.969650805,0.00119881,-0.026820317,0.018616259,-0.046167206,-0.003253064,-0.002073165,0.243413789,-0.042345884,0.002450754
-0.04108528,-0.241017178,-0.969650805,0.00119881,-0.026820317,0.018616259,-0.046167206,-0.003253064,-0.002073165,0.243413789,-0.042345884,0.002450754
-0.04108528,-0.241017178,-0.969650805,0.00119881,-0.026820317,0.018616259,-0.046167206,-0.003253064,-0.002073165,0.243413789,-0.042345884,0.002450754
-0.04108528,-0.241017178,-0.969650805,0.00119881,-0.026820317,0.018616259,-0.046167206,-0.003253064,-0.002073165,0.243413789,-0.042345884,0.002450754
-0.04108528,-0.241017178,-0.969650805,0.00119881,-0.026820317,0.018616259,-0.046167206,-0.003253064,-0.002073165,0.243413789,-0.042345884,0.002450754
-0.04132187,-0.246524945,-0.968255103,-0.002806533,0.007953852,0.013192236,0.012967248,-0.002084372,0.003011982,0.249092893,-0.042650756,0.002521976
-0.04132187,-0.246524945,-0.968255103,-0.002806533,0.007953852,0.013192236,0.012967248,-0.002084372,0.003011982,0.249092893,-0.042650756,0.002521976
-0.04132187,-0.246524945,-0.968255103,-0.002806533,0.007953852,0.013192236,0.012967248,-0.002084372,0.003011982,0.249092893,-0.042650756,0.002521976
-0.04132187,-0.246524945,-0.968255103,-0.002806533,0.007953852,0.013192236,0.012967248,-0.002084372,0.003011982,0.249092893,-0.042650756,0.002521976
-0.04132187,-0.246524945,-0.968255103,-0.002806533,0.007953852,0.013192236,0.012967248,-0.002084372,0.003011982,0.249092893,-0.042650756,0.002521976
-0.04132187,-0.246524945,-0.968255103,-0.002806533,0.007953852,0.013192236,0.012967248,-0.002084372,0.003011982,0.249092893,-0.042650756,0.002521976
-0.04132187,-0.246524945,-0.968255103,-0.002806533,0.007953852,0.013192236,0.012967248,-0.002084372,0.003011982,0.249092893,-0.042650756,0.002521976
-0.04132187,-0.246524945,-0.968255103,-0.002806533,0.007953852,0.013192236,0.012967248,-0.002084372,0.003011982,0.249092893,-0.042650756,0.002521976
-0.04132187,-0.246524945,-0.968255103,-0.002806533,0.007953852,0.013192236,0.012967248,-0.002084372,0.003011982,0.249092893,-0.042650756,0.002521976
-0.04132187,-0.246524945,-0.968255103,-0.002806533,0.007953852,0.013192236,0.012967248,-0.002084372,0.003011982,0.249092893,-0.042650756,0.002521976
-0.04132187,-0.246524945,-0.968255103,-0.002806533,0.007953852,0.013192236,0.012967248,-0.002084372,0.003011982,0.249092893,-0.042650756,0.002521976
-0.04132187,-0.246524945,-0.968255103,-0.002806533,0.007953852,0.013192236,0.012967248,-0.002084372,0.003011982,0.249092893,-0.042650756,0.002521976
-0.040734582,-0.261819869,-0.964256763,-0.009527847,0.030908734,0.011024892,0.110870346,-0.007375322,-0.010184888,0.264907357,-0.042219435,0.002365545
-0.040734582,-0.261819869,-0.964256763,-0.009527847,0.030908734,0.011024892,0.110870346,-0.007375322,-0.010184888,0.264907357,-0.042219435,0.002365545
-0.040734582,-0.261819869,-0.964256763,-0.009527847,0.030908734,0.011024892,0.110870346,-0.007375322,-0.010184888,0.264907357,-0.042219435,0.002365545
-0.040734582,-0.261819869,-0.964256763,-0.009527847,0.030908734,0.011024892,0.110870346,-0.007375322,-0.010184888,0.264907357,-0.042219435,0.002365545
-0.040734582,-0.261819869,-0.964256763,-0.009527847,0.030908734,0.011024892,0.110870346,-0.007375322,-0.010184888,0.264907357,-0.042219435,0.002365545
-0.040734582,-0.261819869,-0.964256763,-0.009527847,0.030908734,0.011024892,0.110870346,-0.007375322,-0.010184888,0.264907357,-0.042219435,0.002365545
-0.040734582,-0.261819869,-0.964256763,-0.009527847,0.030908734,0.011024892,0.110870346,-0.007375322,-0.010184888,0.264907357,-0.042219435,0.002365545
-0.040734582,-0.261819869,-0.964256763,-0.009527847,0.030908734,0.011024892,0.110870346,-0.007375322,-0.010184888,0.264907357,-0.042219435,0.002365545
-0.040734582,-0.261819869,-0.964256763,-0.009527847,0.030908734,0.011024892,0.110870346,-0.007375322,-0.010184888,0.264907357,-0.042219435,0.002365545
-0.040734582,-0.261819869,-0.964256763,-0.009527847,0.030908734,0.011024892,0.110870346,-0.007375322,-0.010184888,0.264907357,-0.042219435,0.002365545
-0.040734582,-0.261819869,-0.964256763,-0.009527847,0.030908734,0.011024892,0.110870346,-0.007375322,-0.010184888,0.264907357,-0.042219435,0.002365545
-0.04070314,-0.270545334,-0.961846411,-0.005759854,0.036384046,0.008278906,0.176012531,-0.015278846,-0.015840376,0.273959455,-0.042292482,0.002132383
-0.04070314,-0.270545334,-0.961846411,-0.005759854,0.036384046,0.008278906,0.176012531,-0.015278846,-0.015840376,0.273959455,-0.042292482,0.002132383
-0.04070314,-0.270545334,-0.961846411,-0.005759854,0.036384046,0.008278906,0.176012531,-0.015278846,-0.015840376,0.273959455,-0.042292482,0.002132383
-0.04070314,-0.270545334,-0.961846411,-0.005759854,0.036384046,0.008278906,0.176012531,-0.015278846,-0.015840376,0.273959455,-0.042292482,0.002132383
-0.04070314,-0.270545334,-0.961846411,-0.005759854,0.036384046,0.008278906,0.176012531,-0.015278846,-0.015840376,0.273959455,-0.042292482,0.002132383
-0.04070314,-0.270545334,-0.961846411,-0.005759854,0.036384046,0.008278906,0.176012531,-0.015278846,-0.015840376,0.273959455,-0.042292482,0.002132383
-0.04070314,-0.270545334,-0.961846411,-0.005759854,0.036384046,0.008278906,0.176012531,-0.015278846,-0.015840376,0.273959455,-0.042292482,0.002132383
-0.04070314,-0.270545334,-0.961846411,-0.005759854,0.036384046,0.008278906,0.176012531,-0.015278846,-0.015840376,0.273959455,-0.042292482,0.002132383
-0.04070314,-0.270545334,-0.961846411,-0.005759854,0.036384046,0.008278906,0.176012531,-0.015278846,-0.015840376,0.273959455,-0.042292482,0.002132383
-0.04070314,-0.270545334,-0.961846411,-0.005759854,0.036384046,0.008278906,0.176012531,-0.015278846,-0.015840376,0.273959455,-0.042292482,0.002132383
-0.04070314,-0.270545334,-0.961846411,-0.005759854,0.036384046,0.008278906,0.176012531,-0.015278846,-0.015840376,0.273959455,-0.042292482,0.002132383
-0.04070314,-0.270545334,-0.961846411,-0.005759854,0.036384046,0.008278906,0.176012531,-0.015278846,-0.015840376,0.273959455,-0.042292482,0.002132383
-0.04070314,-0.270545334,-0.961846411,-0.005759854,0.036384046,0.008278906,0.176012531,-0.015278846,-0.015840376,0.273959455,-0.042292482,0.002132383
-0.040775832,-0.274973392,-0.960586786,-0.006373815,0.028498232,0.00993371,0.18335849,-0.025715921,-8.26E-05,0.278562023,-0.042423408,0.002006674
-0.040775832,-0.274973392,-0.960586786,-0.006373815,0.028498232,0.00993371,0.18335849,-0.025715921,-8.26E-05,0.278562023,-0.042423408,0.002006674
-0.040775832,-0.274973392,-0.960586786,-0.006373815,0.028498232,0.00993371,0.18335849,-0.025715921,-8.26E-05,0.278562023,-0.042423408,0.002006674
-0.040775832,-0.274973392,-0.960586786,-0.006373815,0.028498232,0.00993371,0.18335849,-0.025715921,-8.26E-05,0.278562023,-0.042423408,0.002006674
-0.040775832,-0.274973392,-0.960586786,-0.006373815,0.028498232,0.00993371,0.18335849,-0.025715921,-8.26E-05,0.278562023,-0.042423408,0.002006674
-0.040775832,-0.274973392,-0.960586786,-0.006373815,0.028498232,0.00993371,0.18335849,-0.025715921,-8.26E-05,0.278562023,-0.042423408,0.002006674
-0.040775832,-0.274973392,-0.960586786,-0.006373815,0.028498232,0.00993371,0.18335849,-0.025715921,-8.26E-05,0.278562023,-0.042423408,0.002006674
-0.040775832,-0.274973392,-0.960586786,-0.006373815,0.028498232,0.00993371,0.18335849,-0.025715921,-8.26E-05,0.278562023,-0.042423408,0.002006674
-0.041459564,-0.273822874,-0.960886121,-0.00655983,-0.001750767,0.006998181,0.126865074,-0.011642674,0.020632893,0.277365576,-0.043120475,0.00250797
-0.041459564,-0.273822874,-0.960886121,-0.00655983,-0.001750767,0.006998181,0.126865074,-0.011642674,0.020632893,0.277365576,-0.043120475,0.00250797
-0.041459564,-0.273822874,-0.960886121,-0.00655983,-0.001750767,0.006998181,0.126865074,-0.011642674,0.020632893,0.277365576,-0.043120475,0.00250797
-0.043160986,-0.269787312,-0.96195215,0.00423583,-0.046969801,0.019325197,0.009556444,-0.015358426,0.026702559,0.273172153,-0.044838048,0.003421009
-0.043160986,-0.269787312,-0.96195215,0.00423583,-0.046969801,0.019325197,0.009556444,-0.015358426,0.026702559,0.273172153,-0.044838048,0.003421009
-0.043160986,-0.269787312,-0.96195215,0.00423583,-0.046969801,0.019325197,0.009556444,-0.015358426,0.026702559,0.273172153,-0.044838048,0.003421009
-0.043160986,-0.269787312,-0.96195215,0.00423583,-0.046969801,0.019325197,0.009556444,-0.015358426,0.026702559,0.273172153,-0.044838048,0.003421009
-0.043160986,-0.269787312,-0.96195215,0.00423583,-0.046969801,0.019325197,0.009556444,-0.015358426,0.026702559,0.273172153,-0.044838048,0.003421009
-0.043160986,-0.269787312,-0.96195215,0.00423583,-0.046969801,0.019325197,0.009556444,-0.015358426,0.026702559,0.273172153,-0.044838048,0.003421009
-0.044187687,-0.264685929,-0.963321745,-0.011918861,-0.033180833,0.060932219,-0.112001948,-0.052129757,-0.010410457,0.267878229,-0.045837994,0.003650832
-0.044187687,-0.264685929,-0.963321745,-0.011918861,-0.033180833,0.060932219,-0.112001948,-0.052129757,-0.010410457,0.267878229,-0.045837994,0.003650832
-0.044187687,-0.264685929,-0.963321745,-0.011918861,-0.033180833,0.060932219,-0.112001948,-0.052129757,-0.010410457,0.267878229,-0.045837994,0.003650832
-0.044187687,-0.264685929,-0.963321745,-0.011918861,-0.033180833,0.060932219,-0.112001948,-0.052129757,-0.010410457,0.267878229,-0.045837994,0.003650832
-0.044187687,-0.264685929,-0.963321745,-0.011918861,-0.033180833,0.060932219,-0.112001948,-0.052129757,-0.010410457,0.267878229,-0.045837994,0.003650832
-0.044187687,-0.264685929,-0.963321745,-0.011918861,-0.033180833,0.060932219,-0.112001948,-0.052129757,-0.010410457,0.267878229,-0.045837994,0.003650832
-0.044187687,-0.264685929,-0.963321745,-0.011918861,-0.033180833,0.060932219,-0.112001948,-0.052129757,-0.010410457,0.267878229,-0.045837994,0.003650832
-0.044187687,-0.264685929,-0.963321745,-0.011918861,-0.033180833,0.060932219,-0.112001948,-0.052129757,-0.010410457,0.267878229,-0.045837994,0.003650832
-0.044187687,-0.264685929,-0.963321745,-0.011918861,-0.033180833,0.060932219,-0.112001948,-0.052129757,-0.010410457,0.267878229,-0.045837994,0.003650832
-0.044187687,-0.264685929,-0.963321745,-0.011918861,-0.033180833,0.060932219,-0.112001948,-0.052129757,-0.010410457,0.267878229,-0.045837994,0.003650832
-0.044187687,-0.264685929,-0.963321745,-0.011918861,-0.033180833,0.060932219,-0.112001948,-0.052129757,-0.010410457,0.267878229,-0.045837994,0.003650832
-0.045436352,-0.260798693,-0.964323401,-0.000172153,-0.036762893,0.037840247,-0.131545708,0.01829347,0.007142331,0.263849422,-0.047082519,0.00412259
-0.045436352,-0.260798693,-0.964323401,-0.000172153,-0.036762893,0.037840247,-0.131545708,0.01829347,0.007142331,0.263849422,-0.047082519,0.00412259
-0.045436352,-0.260798693,-0.964323401,-0.000172153,-0.036762893,0.037840247,-0.131545708,0.01829347,0.007142331,0.263849422,-0.047082519,0.00412259
-0.045436352,-0.260798693,-0.964323401,-0.000172153,-0.036762893,0.037840247,-0.131545708,0.01829347,0.007142331,0.263849422,-0.047082519,0.00412259
-0.045436352,-0.260798693,-0.964323401,-0.000172153,-0.036762893,0.037840247,-0.131545708,0.01829347,0.007142331,0.263849422,-0.047082519,0.00412259
-0.045436352,-0.260798693,-0.964323401,-0.000172153,-0.036762893,0.037840247,-0.131545708,0.01829347,0.007142331,0.263849422,-0.047082519,0.00412259
-0.045436352,-0.260798693,-0.964323401,-0.000172153,-0.036762893,0.037840247,-0.131545708,0.01829347,0.007142331,0.263849422,-0.047082519,0.00412259
-0.045436352,-0.260798693,-0.964323401,-0.000172153,-0.036762893,0.037840247,-0.131545708,0.01829347,0.007142331,0.263849422,-0.047082519,0.00412259
-0.045436352,-0.260798693,-0.964323401,-0.000172153,-0.036762893,0.037840247,-0.131545708,0.01829347,0.007142331,0.263849422,-0.047082519,0.00412259
-0.045436352,-0.260798693,-0.964323401,-0.000172153,-0.036762893,0.037840247,-0.131545708,0.01829347,0.007142331,0.263849422,-0.047082519,0.00412259
-0.045436352,-0.260798693,-0.964323401,-0.000172153,-0.036762893,0.037840247,-0.131545708,0.01829347,0.007142331,0.263849422,-0.047082519,0.00412259
-0.045436352,-0.260798693,-0.964323401,-0.000172153,-0.036762893,0.037840247,-0.131545708,0.01829347,0.007142331,0.263849422,-0.047082519,0.00412259
-0.045436352,-0.260798693,-0.964323401,-0.000172153,-0.036762893,0.037840247,-0.131545708,0.01829347,0.007142331,0.263849422,-0.047082519,0.00412259
-0.045344558,-0.259609252,-0.964648604,-0.003086839,0.015087187,-0.025311112,-0.038834658,-0.01067315,0.024418099,0.262617557,-0.046971721,0.003736988
-0.045344558,-0.259609252,-0.964648604,-0.003086839,0.015087187,-0.025311112,-0.038834658,-0.01067315,0.024418099,0.262617557,-0.046971721,0.003736988
-0.045344558,-0.259609252,-0.964648604,-0.003086839,0.015087187,-0.025311112,-0.038834658,-0.01067315,0.024418099,0.262617557,-0.046971721,0.003736988
-0.045344558,-0.259609252,-0.964648604,-0.003086839,0.015087187,-0.025311112,-0.038834658,-0.01067315,0.024418099,0.262617557,-0.046971721,0.003736988
-0.045344558,-0.259609252,-0.964648604,-0.003086839,0.015087187,-0.025311112,-0.038834658,-0.01067315,0.024418099,0.262617557,-0.046971721,0.003736988
-0.045344558,-0.259609252,-0.964648604,-0.003086839,0.015087187,-0.025311112,-0.038834658,-0.01067315,0.024418099,0.262617557,-0.046971721,0.003736988
-0.045344558,-0.259609252,-0.964648604,-0.003086839,0.015087187,-0.025311112,-0.038834658,-0.01067315,0.024418099,0.262617557,-0.046971721,0.003736988
-0.045344558,-0.259609252,-0.964648604,-0.003086839,0.015087187,-0.025311112,-0.038834658,-0.01067315,0.024418099,0.262617557,-0.046971721,0.003736988
-0.045344558,-0.259609252,-0.964648604,-0.003086839,0.015087187,-0.025311112,-0.038834658,-0.01067315,0.024418099,0.262617557,-0.046971721,0.003736988
-0.045344558,-0.259609252,-0.964648604,-0.003086839,0.015087187,-0.025311112,-0.038834658,-0.01067315,0.024418099,0.262617557,-0.046971721,0.003736988
-0.045344558,-0.259609252,-0.964648604,-0.003086839,0.015087187,-0.025311112,-0.038834658,-0.01067315,0.024418099,0.262617557,-0.046971721,0.003736988
-0.044939812,-0.263522655,-0.963605881,-0.022519279,0.037051797,0.051832139,-0.008312581,0.027858155,-0.028927736,0.266672118,-0.046603364,0.003863001
-0.044939812,-0.263522655,-0.963605881,-0.022519279,0.037051797,0.051832139,-0.008312581,0.027858155,-0.028927736,0.266672118,-0.046603364,0.003863001
-0.044939812,-0.263522655,-0.963605881,-0.022519279,0.037051797,0.051832139,-0.008312581,0.027858155,-0.028927736,0.266672118,-0.046603364,0.003863001
-0.044939812,-0.263522655,-0.963605881,-0.022519279,0.037051797,0.051832139,-0.008312581,0.027858155,-0.028927736,0.266672118,-0.046603364,0.003863001
-0.044939812,-0.263522655,-0.963605881,-0.022519279,0.037051797,0.051832139,-0.008312581,0.027858155,-0.028927736,0.266672118,-0.046603364,0.003863001
-0.044939812,-0.263522655,-0.963605881,-0.022519279,0.037051797,0.051832139,-0.008312581,0.027858155,-0.028927736,0.266672118,-0.046603364,0.003863001
-0.044939812,-0.263522655,-0.963605881,-0.022519279,0.037051797,0.051832139,-0.008312581,0.027858155,-0.028927736,0.266672118,-0.046603364,0.003863001
-0.044939812,-0.263522655,-0.963605881,-0.022519279,0.037051797,0.051832139,-0.008312581,0.027858155,-0.028927736,0.266672118,-0.046603364,0.003863001
-0.044939812,-0.263522655,-0.963605881,-0.022519279,0.037051797,0.051832139,-0.008312581,0.027858155,-0.028927736,0.266672118,-0.046603364,0.003863001
-0.045180865,-0.268346697,-0.962262332,0.015533052,0.010381699,0.012295842,0.025068078,0.010066386,0.016927373,0.271676373,-0.046918295,0.004092607
-0.045180865,-0.268346697,-0.962262332,0.015533052,0.010381699,0.012295842,0.025068078,0.010066386,0.016927373,0.271676373,-0.046918295,0.004092607
-0.045180865,-0.268346697,-0.962262332,0.015533052,0.010381699,0.012295842,0.025068078,0.010066386,0.016927373,0.271676373,-0.046918295,0.004092607
-0.045180865,-0.268346697,-0.962262332,0.015533052,0.010381699,0.012295842,0.025068078,0.010066386,0.016927373,0.271676373,-0.046918295,0.004092607
-0.045180865,-0.268346697,-0.962262332,0.015533052,0.010381699,0.012295842,0.025068078,0.010066386,0.016927373,0.271676373,-0.046918295,0.004092607
-0.045180865,-0.268346697,-0.962262332,0.015533052,0.010381699,0.012295842,0.025068078,0.010066386,0.016927373,0.271676373,-0.046918295,0.004092607
-0.045180865,-0.268346697,-0.962262332,0.015533052,0.010381699,0.012295842,0.025068078,0.010066386,0.016927373,0.271676373,-0.046918295,0.004092607
-0.045180865,-0.268346697,-0.962262332,0.015533052,0.010381699,0.012295842,0.025068078,0.010066386,0.016927373,0.271676373,-0.046918295,0.004092607
-0.045180865,-0.268346697,-0.962262332,0.015533052,0.010381699,0.012295842,0.025068078,0.010066386,0.016927373,0.271676373,-0.046918295,0.004092607
-0.045180865,-0.268346697,-0.962262332,0.015533052,0.010381699,0.012295842,0.025068078,0.010066386,0.016927373,0.271676373,-0.046918295,0.004092607
-0.045180865,-0.268346697,-0.962262332,0.015533052,0.010381699,0.012295842,0.025068078,0.010066386,0.016927373,0.271676373,-0.046918295,0.004092607
-0.044147044,-0.270766109,-0.961632371,-0.005474519,0.002547175,-0.010688245,0.000604601,-0.011443337,0.018442124,0.27418877,-0.045876234,0.004135535
-0.044147044,-0.270766109,-0.961632371,-0.005474519,0.002547175,-0.010688245,0.000604601,-0.011443337,0.018442124,0.27418877,-0.045876234,0.004135535
-0.044147044,-0.270766109,-0.961632371,-0.005474519,0.002547175,-0.010688245,0.000604601,-0.011443337,0.018442124,0.27418877,-0.045876234,0.004135535
-0.044147044,-0.270766109,-0.961632371,-0.005474519,0.002547175,-0.010688245,0.000604601,-0.011443337,0.018442124,0.27418877,-0.045876234,0.004135535
-0.044147044,-0.270766109,-0.961632371,-0.005474519,0.002547175,-0.010688245,0.000604601,-0.011443337,0.018442124,0.27418877,-0.045876234,0.004135535
-0.044147044,-0.270766109,-0.961632371,-0.005474519,0.002547175,-0.010688245,0.000604601,-0.011443337,0.018442124,0.27418877,-0.045876234,0.004135535
-0.044147044,-0.270766109,-0.961632371,-0.005474519,0.002547175,-0.010688245,0.000604601,-0.011443337,0.018442124,0.27418877,-0.045876234,0.004135535
-0.044147044,-0.270766109,-0.961632371,-0.005474519,0.002547175,-0.010688245,0.000604601,-0.011443337,0.018442124,0.27418877,-0.045876234,0.004135535
-0.044147044,-0.270766109,-0.961632371,-0.005474519,0.002547175,-0.010688245,0.000604601,-0.011443337,0.018442124,0.27418877,-0.045876234,0.004135535
-0.044147044,-0.270766109,-0.961632371,-0.005474519,0.002547175,-0.010688245,0.000604601,-0.011443337,0.018442124,0.27418877,-0.045876234,0.004135535
-0.044147044,-0.270766109,-0.961632371,-0.005474519,0.002547175,-0.010688245,0.000604601,-0.011443337,0.018442124,0.27418877,-0.045876234,0.004135535
-0.044147044,-0.270766109,-0.961632371,-0.005474519,0.002547175,-0.010688245,0.000604601,-0.011443337,0.018442124,0.27418877,-0.045876234,0.004135535
-0.046713393,-0.269433409,-0.961885393,-0.005059659,5.48E-05,0.032869279,-0.016476182,0.031715572,-0.034103375,0.272804644,-0.048526281,0.005033434
-0.046713393,-0.269433409,-0.961885393,-0.005059659,5.48E-05,0.032869279,-0.016476182,0.031715572,-0.034103375,0.272804644,-0.048526281,0.005033434
-0.046713393,-0.269433409,-0.961885393,-0.005059659,5.48E-05,0.032869279,-0.016476182,0.031715572,-0.034103375,0.272804644,-0.048526281,0.005033434
-0.046713393,-0.269433409,-0.961885393,-0.005059659,5.48E-05,0.032869279,-0.016476182,0.031715572,-0.034103375,0.272804644,-0.048526281,0.005033434
-0.046713393,-0.269433409,-0.961885393,-0.005059659,5.48E-05,0.032869279,-0.016476182,0.031715572,-0.034103375,0.272804644,-0.048526281,0.005033434
-0.046713393,-0.269433409,-0.961885393,-0.005059659,5.48E-05,0.032869279,-0.016476182,0.031715572,-0.034103375,0.272804644,-0.048526281,0.005033434
-0.046713393,-0.269433409,-0.961885393,-0.005059659,5.48E-05,0.032869279,-0.016476182,0.031715572,-0.034103375,0.272804644,-0.048526281,0.005033434
-0.046713393,-0.269433409,-0.961885393,-0.005059659,5.48E-05,0.032869279,-0.016476182,0.031715572,-0.034103375,0.272804644,-0.048526281,0.005033434
-0.046713393,-0.269433409,-0.961885393,-0.005059659,5.48E-05,0.032869279,-0.016476182,0.031715572,-0.034103375,0.272804644,-0.048526281,0.005033434
-0.046713393,-0.269433409,-0.961885393,-0.005059659,5.48E-05,0.032869279,-0.016476182,0.031715572,-0.034103375,0.272804644,-0.048526281,0.005033434
-0.046713393,-0.269433409,-0.961885393,-0.005059659,5.48E-05,0.032869279,-0.016476182,0.031715572,-0.034103375,0.272804644,-0.048526281,0.005033434
-0.046022311,-0.267323971,-0.962507069,0.02359191,0.005437464,0.007871449,-0.039557386,-0.00981014,0.005358066,0.27061487,-0.047778649,0.00454761
-0.046022311,-0.267323971,-0.962507069,0.02359191,0.005437464,0.007871449,-0.039557386,-0.00981014,0.005358066,0.27061487,-0.047778649,0.00454761
-0.046022311,-0.267323971,-0.962507069,0.02359191,0.005437464,0.007871449,-0.039557386,-0.00981014,0.005358066,0.27061487,-0.047778649,0.00454761
-0.046307053,-0.265523702,-0.962991595,-0.003161922,-0.010767102,0.009073138,-0.069962949,0.032319121,0.020059301,0.26874709,-0.048049652,0.004791207
-0.046307053,-0.265523702,-0.962991595,-0.003161922,-0.010767102,0.009073138,-0.069962949,0.032319121,0.020059301,0.26874709,-0.048049652,0.004791207
-0.046307053,-0.265523702,-0.962991595,-0.003161922,-0.010767102,0.009073138,-0.069962949,0.032319121,0.020059301,0.26874709,-0.048049652,0.004791207
-0.046307053,-0.265523702,-0.962991595,-0.003161922,-0.010767102,0.009073138,-0.069962949,0.032319121,0.020059301,0.26874709,-0.048049652,0.004791207
-0.046307053,-0.265523702,-0.962991595,-0.003161922,-0.010767102,0.009073138,-0.069962949,0.032319121,0.020059301,0.26874709,-0.048049652,0.004791207
-0.046307053,-0.265523702,-0.962991595,-0.003161922,-0.010767102,0.009073138,-0.069962949,0.032319121,0.020059301,0.26874709,-0.048049652,0.004791207
-0.046307053,-0.265523702,-0.962991595,-0.003161922,-0.010767102,0.009073138,-0.069962949,0.032319121,0.020059301,0.26874709,-0.048049652,0.004791207
-0.046307053,-0.265523702,-0.962991595,-0.003161922,-0.010767102,0.009073138,-0.069962949,0.032319121,0.020059301,0.26874709,-0.048049652,0.004791207
-0.046307053,-0.265523702,-0.962991595,-0.003161922,-0.010767102,0.009073138,-0.069962949,0.032319121,0.020059301,0.26874709,-0.048049652,0.004791207
-0.046307053,-0.265523702,-0.962991595,-0.003161922,-0.010767102,0.009073138,-0.069962949,0.032319121,0.020059301,0.26874709,-0.048049652,0.004791207
-0.046307053,-0.265523702,-0.962991595,-0.003161922,-0.010767102,0.009073138,-0.069962949,0.032319121,0.020059301,0.26874709,-0.048049652,0.004791207
-0.045520529,-0.263493717,-0.963586509,-0.004680868,-0.015146941,0.034234703,-0.11346291,0.04621888,-0.002399775,0.266642129,-0.047205634,0.005041287
-0.045520529,-0.263493717,-0.963586509,-0.004680868,-0.015146941,0.034234703,-0.11346291,0.04621888,-0.002399775,0.266642129,-0.047205634,0.005041287
-0.045520529,-0.263493717,-0.963586509,-0.004680868,-0.015146941,0.034234703,-0.11346291,0.04621888,-0.002399775,0.266642129,-0.047205634,0.005041287
-0.045520529,-0.263493717,-0.963586509,-0.004680868,-0.015146941,0.034234703,-0.11346291,0.04621888,-0.002399775,0.266642129,-0.047205634,0.005041287
-0.045520529,-0.263493717,-0.963586509,-0.004680868,-0.015146941,0.034234703,-0.11346291,0.04621888,-0.002399775,0.266642129,-0.047205634,0.005041287
-0.045520529,-0.263493717,-0.963586509,-0.004680868,-0.015146941,0.034234703,-0.11346291,0.04621888,-0.002399775,0.266642129,-0.047205634,0.005041287
-0.045520529,-0.263493717,-0.963586509,-0.004680868,-0.015146941,0.034234703,-0.11346291,0.04621888,-0.002399775,0.266642129,-0.047205634,0.005041287
-0.045520529,-0.263493717,-0.963586509,-0.004680868,-0.015146941,0.034234703,-0.11346291,0.04621888,-0.002399775,0.266642129,-0.047205634,0.005041287
-0.044712767,-0.262162298,-0.96398741,0.005070448,-0.000334591,0.005720198,-0.112065457,0.031233601,-0.030402808,0.265262191,-0.046349925,0.004554108
-0.044712767,-0.262162298,-0.96398741,0.005070448,-0.000334591,0.005720198,-0.112065457,0.031233601,-0.030402808,0.265262191,-0.046349925,0.004554108
-0.044712767,-0.262162298,-0.96398741,0.005070448,-0.000334591,0.005720198,-0.112065457,0.031233601,-0.030402808,0.265262191,-0.046349925,0.004554108
-0.044712767,-0.262162298,-0.96398741,0.005070448,-0.000334591,0.005720198,-0.112065457,0.031233601,-0.030402808,0.265262191,-0.046349925,0.004554108
-0.044712767,-0.262162298,-0.96398741,0.005070448,-0.000334591,0.005720198,-0.112065457,0.031233601,-0.030402808,0.265262191,-0.046349925,0.004554108
-0.044712767,-0.262162298,-0.96398741,0.005070448,-0.000334591,0.005720198,-0.112065457,0.031233601,-0.030402808,0.265262191,-0.046349925,0.004554108
-0.044712767,-0.262162298,-0.96398741,0.005070448,-0.000334591,0.005720198,-0.112065457,0.031233601,-0.030402808,0.265262191,-0.046349925,0.004554108
-0.044712767,-0.262162298,-0.96398741,0.005070448,-0.000334591,0.005720198,-0.112065457,0.031233601,-0.030402808,0.265262191,-0.046349925,0.004554108
-0.044712767,-0.262162298,-0.96398741,0.005070448,-0.000334591,0.005720198,-0.112065457,0.031233601,-0.030402808,0.265262191,-0.046349925,0.004554108
-0.044712767,-0.262162298,-0.96398741,0.005070448,-0.000334591,0.005720198,-0.112065457,0.031233601,-0.030402808,0.265262191,-0.046349925,0.004554108
-0.044712767,-0.262162298,-0.96398741,0.005070448,-0.000334591,0.005720198,-0.112065457,0.031233601,-0.030402808,0.265262191,-0.046349925,0.004554108
-0.043341678,-0.260589361,-0.964476407,0.002570193,0.01022315,0.001646817,-0.081660546,0.029437589,-0.041160643,0.263632596,-0.044907825,0.003462054
-0.043341678,-0.260589361,-0.964476407,0.002570193,0.01022315,0.001646817,-0.081660546,0.029437589,-0.041160643,0.263632596,-0.044907825,0.003462054
-0.043341678,-0.260589361,-0.964476407,0.002570193,0.01022315,0.001646817,-0.081660546,0.029437589,-0.041160643,0.263632596,-0.044907825,0.003462054
-0.043341678,-0.260589361,-0.964476407,0.002570193,0.01022315,0.001646817,-0.081660546,0.029437589,-0.041160643,0.263632596,-0.044907825,0.003462054
-0.043341678,-0.260589361,-0.964476407,0.002570193,0.01022315,0.001646817,-0.081660546,0.029437589,-0.041160643,0.263632596,-0.044907825,0.003462054
-0.043341678,-0.260589361,-0.964476407,0.002570193,0.01022315,0.001646817,-0.081660546,0.029437589,-0.041160643,0.263632596,-0.044907825,0.003462054
-0.043341678,-0.260589361,-0.964476407,0.002570193,0.01022315,0.001646817,-0.081660546,0.029437589,-0.041160643,0.263632596,-0.044907825,0.003462054
-0.043341678,-0.260589361,-0.964476407,0.002570193,0.01022315,0.001646817,-0.081660546,0.029437589,-0.041160643,0.263632596,-0.044907825,0.003462054
-0.043341678,-0.260589361,-0.964476407,0.002570193,0.01022315,0.001646817,-0.081660546,0.029437589,-0.041160643,0.263632596,-0.044907825,0.003462054
-0.043341678,-0.260589361,-0.964476407,0.002570193,0.01022315,0.001646817,-0.081660546,0.029437589,-0.041160643,0.263632596,-0.044907825,0.003462054
-0.043341678,-0.260589361,-0.964476407,0.002570193,0.01022315,0.001646817,-0.081660546,0.029437589,-0.041160643,0.263632596,-0.044907825,0.003462054
-0.043341678,-0.260589361,-0.964476407,0.002570193,0.01022315,0.001646817,-0.081660546,0.029437589,-0.041160643,0.263632596,-0.044907825,0.003462054
-0.043341678,-0.260589361,-0.964476407,0.002570193,0.01022315,0.001646817,-0.081660546,0.029437589,-0.041160643,0.263632596,-0.044907825,0.003462054
-0.04275417,-0.259906411,-0.964686871,0.006712925,0.010318488,0.01900816,-0.028624604,-0.029680569,-0.00534555,0.262925282,-0.044290236,0.00275663
-0.04275417,-0.259906411,-0.964686871,0.006712925,0.010318488,0.01900816,-0.028624604,-0.029680569,-0.00534555,0.262925282,-0.044290236,0.00275663
-0.04275417,-0.259906411,-0.964686871,0.006712925,0.010318488,0.01900816,-0.028624604,-0.029680569,-0.00534555,0.262925282,-0.044290236,0.00275663
-0.04275417,-0.259906411,-0.964686871,0.006712925,0.010318488,0.01900816,-0.028624604,-0.029680569,-0.00534555,0.262925282,-0.044290236,0.00275663
-0.04275417,-0.259906411,-0.964686871,0.006712925,0.010318488,0.01900816,-0.028624604,-0.029680569,-0.00534555,0.262925282,-0.044290236,0.00275663
-0.04275417,-0.259906411,-0.964686871,0.006712925,0.010318488,0.01900816,-0.028624604,-0.029680569,-0.00534555,0.262925282,-0.044290236,0.00275663
-0.04275417,-0.259906411,-0.964686871,0.006712925,0.010318488,0.01900816,-0.028624604,-0.029680569,-0.00534555,0.262925282,-0.044290236,0.00275663
-0.04275417,-0.259906411,-0.964686871,0.006712925,0.010318488,0.01900816,-0.028624604,-0.029680569,-0.00534555,0.262925282,-0.044290236,0.00275663
-0.04275417,-0.259906411,-0.964686871,0.006712925,0.010318488,0.01900816,-0.028624604,-0.029680569,-0.00534555,0.262925282,-0.044290236,0.00275663
-0.04275417,-0.259906411,-0.964686871,0.006712925,0.010318488,0.01900816,-0.028624604,-0.029680569,-0.00534555,0.262925282,-0.044290236,0.00275663
-0.04275417,-0.259906411,-0.964686871,0.006712925,0.010318488,0.01900816,-0.028624604,-0.029680569,-0.00534555,0.262925282,-0.044290236,0.00275663
-0.04275417,-0.259906411,-0.964686871,0.006712925,0.010318488,0.01900816,-0.028624604,-0.029680569,-0.00534555,0.262925282,-0.044290236,0.00275663
-0.048803516,-0.267648011,-0.962279975,-0.01665666,-0.010763705,0.017989814,0.097574569,-0.01105034,0.004145263,0.270951153,-0.050673129,0.005182048
-0.048803516,-0.267648011,-0.962279975,-0.01665666,-0.010763705,0.017989814,0.097574569,-0.01105034,0.004145263,0.270951153,-0.050673129,0.005182048
-0.048803516,-0.267648011,-0.962279975,-0.01665666,-0.010763705,0.017989814,0.097574569,-0.01105034,0.004145263,0.270951153,-0.050673129,0.005182048
-0.047256567,-0.26846385,-0.962129951,0.004577763,-0.000365347,0.014833748,0.072896987,-0.02865014,0.004599865,0.271797987,-0.049077177,0.004804553
-0.047256567,-0.26846385,-0.962129951,0.004577763,-0.000365347,0.014833748,0.072896987,-0.02865014,0.004599865,0.271797987,-0.049077177,0.004804553
-0.047256567,-0.26846385,-0.962129951,0.004577763,-0.000365347,0.014833748,0.072896987,-0.02865014,0.004599865,0.271797987,-0.049077177,0.004804553
-0.047256567,-0.26846385,-0.962129951,0.004577763,-0.000365347,0.014833748,0.072896987,-0.02865014,0.004599865,0.271797987,-0.049077177,0.004804553
-0.047256567,-0.26846385,-0.962129951,0.004577763,-0.000365347,0.014833748,0.072896987,-0.02865014,0.004599865,0.271797987,-0.049077177,0.004804553
-0.047256567,-0.26846385,-0.962129951,0.004577763,-0.000365347,0.014833748,0.072896987,-0.02865014,0.004599865,0.271797987,-0.049077177,0.004804553
-0.048398744,-0.268058479,-0.962186158,-0.004610263,-0.004707456,0.012982666,0.053613026,-0.023129541,-0.001335842,0.271377205,-0.050258451,0.005154397
-0.048398744,-0.268058479,-0.962186158,-0.004610263,-0.004707456,0.012982666,0.053613026,-0.023129541,-0.001335842,0.271377205,-0.050258451,0.005154397
-0.048398744,-0.268058479,-0.962186158,-0.004610263,-0.004707456,0.012982666,0.053613026,-0.023129541,-0.001335842,0.271377205,-0.050258451,0.005154397
-0.049888067,-0.281977713,-0.958123028,0.000571772,0.004985541,0.014260054,0.041970935,-0.011328688,0.002080941,0.285854853,-0.052021559,0.003152523
-0.049888067,-0.281977713,-0.958123028,0.000571772,0.004985541,0.014260054,0.041970935,-0.011328688,0.002080941,0.285854853,-0.052021559,0.003152523
-0.049888067,-0.281977713,-0.958123028,0.000571772,0.004985541,0.014260054,0.041970935,-0.011328688,0.002080941,0.285854853,-0.052021559,0.003152523
-0.05003015,-0.282963395,-0.957825005,-0.000873059,0.004597932,0.014526546,0.053533915,-0.002346051,-0.004551396,0.286882383,-0.052185654,0.003196527
-0.05003015,-0.282963395,-0.957825005,-0.000873059,0.004597932,0.014526546,0.053533915,-0.002346051,-0.004551396,0.286882383,-0.052185654,0.003196527
-0.05003015,-0.282963395,-0.957825005,-0.000873059,0.004597932,0.014526546,0.053533915,-0.002346051,-0.004551396,0.286882383,-0.052185654,0.003196527
-0.05003015,-0.282963395,-0.957825005,-0.000873059,0.004597932,0.014526546,0.053533915,-0.002346051,-0.004551396,0.286882383,-0.052185654,0.003196527
-0.05003015,-0.282963395,-0.957825005,-0.000873059,0.004597932,0.014526546,0.053533915,-0.002346051,-0.004551396,0.286882383,-0.052185654,0.003196527
-0.050034486,-0.284074903,-0.957495689,0.002244085,0.008349299,0.013113856,0.065704927,-0.003356442,-0.000759747,0.288041433,-0.052208088,0.003175681
-0.050034486,-0.284074903,-0.957495689,0.002244085,0.008349299,0.013113856,0.065704927,-0.003356442,-0.000759747,0.288041433,-0.052208088,0.003175681
-0.050034486,-0.284074903,-0.957495689,0.002244085,0.008349299,0.013113856,0.065704927,-0.003356442,-0.000759747,0.288041433,-0.052208088,0.003175681
-0.050034486,-0.284074903,-0.957495689,0.002244085,0.008349299,0.013113856,0.065704927,-0.003356442,-0.000759747,0.288041433,-0.052208088,0.003175681
-0.050034486,-0.284074903,-0.957495689,0.002244085,0.008349299,0.013113856,0.065704927,-0.003356442,-0.000759747,0.288041433,-0.052208088,0.003175681
-0.050147742,-0.285518914,-0.957060158,0.002998222,0.008206457,0.010145366,0.087475941,-0.004612753,-0.00868606,0.289547823,-0.052349814,0.003193045
-0.050147742,-0.285518914,-0.957060158,0.002998222,0.008206457,0.010145366,0.087475941,-0.004612753,-0.00868606,0.289547823,-0.052349814,0.003193045
-0.050147742,-0.285518914,-0.957060158,0.002998222,0.008206457,0.010145366,0.087475941,-0.004612753,-0.00868606,0.289547823,-0.052349814,0.003193045
-0.050147742,-0.285518914,-0.957060158,0.002998222,0.008206457,0.010145366,0.087475941,-0.004612753,-0.00868606,0.289547823,-0.052349814,0.003193045
-0.050147742,-0.285518914,-0.957060158,0.002998222,0.008206457,0.010145366,0.087475941,-0.004612753,-0.00868606,0.289547823,-0.052349814,0.003193045
-0.050147742,-0.285518914,-0.957060158,0.002998222,0.008206457,0.010145366,0.087475941,-0.004612753,-0.00868606,0.289547823,-0.052349814,0.003193045
-0.050147742,-0.285518914,-0.957060158,0.002998222,0.008206457,0.010145366,0.087475941,-0.004612753,-0.00868606,0.289547823,-0.052349814,0.003193045
-0.050141517,-0.287215471,-0.956552744,0.002686832,0.009170681,0.009927869,0.094618484,0.003146271,-0.001381488,0.291318561,-0.052371045,0.003140226
-0.050141517,-0.287215471,-0.956552744,0.002686832,0.009170681,0.009927869,0.094618484,0.003146271,-0.001381488,0.291318561,-0.052371045,0.003140226
-0.050141517,-0.287215471,-0.956552744,0.002686832,0.009170681,0.009927869,0.094618484,0.003146271,-0.001381488,0.291318561,-0.052371045,0.003140226
-0.050141517,-0.287215471,-0.956552744,0.002686832,0.009170681,0.009927869,0.094618484,0.003146271,-0.001381488,0.291318561,-0.052371045,0.003140226
-0.050141517,-0.287215471,-0.956552744,0.002686832,0.009170681,0.009927869,0.094618484,0.003146271,-0.001381488,0.291318561,-0.052371045,0.003140226
-0.050141517,-0.287215471,-0.956552744,0.002686832,0.009170681,0.009927869,0.094618484,0.003146271,-0.001381488,0.291318561,-0.052371045,0.003140226
-0.050141517,-0.287215471,-0.956552744,0.002686832,0.009170681,0.009927869,0.094618484,0.003146271,-0.001381488,0.291318561,-0.052371045,0.003140226
-0.050107758,-0.288717657,-0.956102133,0.003965341,-0.004021287,0.010789514,0.074851587,0.00381355,-0.007106166,0.29288719,-0.052360471,0.003135206
-0.050107758,-0.288717657,-0.956102133,0.003965341,-0.004021287,0.010789514,0.074851587,0.00381355,-0.007106166,0.29288719,-0.052360471,0.003135206
-0.050107758,-0.288717657,-0.956102133,0.003965341,-0.004021287,0.010789514,0.074851587,0.00381355,-0.007106166,0.29288719,-0.052360471,0.003135206
-0.050107758,-0.288717657,-0.956102133,0.003965341,-0.004021287,0.010789514,0.074851587,0.00381355,-0.007106166,0.29288719,-0.052360471,0.003135206
-0.050107758,-0.288717657,-0.956102133,0.003965341,-0.004021287,0.010789514,0.074851587,0.00381355,-0.007106166,0.29288719,-0.052360471,0.003135206
-0.050107758,-0.288717657,-0.956102133,0.003965341,-0.004021287,0.010789514,0.074851587,0.00381355,-0.007106166,0.29288719,-0.052360471,0.003135206
-0.050107758,-0.288717657,-0.956102133,0.003965341,-0.004021287,0.010789514,0.074851587,0.00381355,-0.007106166,0.29288719,-0.052360471,0.003135206
-0.050107758,-0.288717657,-0.956102133,0.003965341,-0.004021287,0.010789514,0.074851587,0.00381355,-0.007106166,0.29288719,-0.052360471,0.003135206
-0.050111882,-0.28976357,-0.955785453,0.005617414,-0.003707796,0.014287531,0.057920728,-0.004263746,0.001912576,0.293979807,-0.052382089,0.00319535
-0.050111882,-0.28976357,-0.955785453,0.005617414,-0.003707796,0.014287531,0.057920728,-0.004263746,0.001912576,0.293979807,-0.052382089,0.00319535
-0.050111882,-0.28976357,-0.955785453,0.005617414,-0.003707796,0.014287531,0.057920728,-0.004263746,0.001912576,0.293979807,-0.052382089,0.00319535
-0.050206114,-0.292434305,-0.954966784,-0.002131369,0.001129717,0.013224661,0.036368668,-0.004515438,-0.000367197,0.296771439,-0.05252532,0.003296179
-0.050206114,-0.292434305,-0.954966784,-0.002131369,0.001129717,0.013224661,0.036368668,-0.004515438,-0.000367197,0.296771439,-0.05252532,0.003296179
-0.050206114,-0.292434305,-0.954966784,-0.002131369,0.001129717,0.013224661,0.036368668,-0.004515438,-0.000367197,0.296771439,-0.05252532,0.003296179
-0.050206114,-0.292434305,-0.954966784,-0.002131369,0.001129717,0.013224661,0.036368668,-0.004515438,-0.000367197,0.296771439,-0.05252532,0.003296179
-0.050206114,-0.292434305,-0.954966784,-0.002131369,0.001129717,0.013224661,0.036368668,-0.004515438,-0.000367197,0.296771439,-0.05252532,0.003296179
-0.050206114,-0.292434305,-0.954966784,-0.002131369,0.001129717,0.013224661,0.036368668,-0.004515438,-0.000367197,0.296771439,-0.05252532,0.003296179
-0.050206114,-0.292434305,-0.954966784,-0.002131369,0.001129717,0.013224661,0.036368668,-0.004515438,-0.000367197,0.296771439,-0.05252532,0.003296179
-0.050206114,-0.292434305,-0.954966784,-0.002131369,0.001129717,0.013224661,0.036368668,-0.004515438,-0.000367197,0.296771439,-0.05252532,0.003296179
-0.050186954,-0.293182641,-0.954738319,-0.001173966,-0.005369872,0.016322613,0.032851618,-0.004884697,0.001284708,0.297554078,-0.052517854,0.003294602
-0.050402414,-0.293933958,-0.954495907,0.002566285,0.008824527,0.014416993,0.046167571,-0.018906083,0.007861173,0.298340016,-0.05275627,0.00342606
-0.050402414,-0.293933958,-0.954495907,0.002566285,0.008824527,0.014416993,0.046167571,-0.018906083,0.007861173,0.298340016,-0.05275627,0.00342606
-0.050402414,-0.293933958,-0.954495907,0.002566285,0.008824527,0.014416993,0.046167571,-0.018906083,0.007861173,0.298340016,-0.05275627,0.00342606
-0.050402414,-0.293933958,-0.954495907,0.002566285,0.008824527,0.014416993,0.046167571,-0.018906083,0.007861173,0.298340016,-0.05275627,0.00342606
-0.050402414,-0.293933958,-0.954495907,0.002566285,0.008824527,0.014416993,0.046167571,-0.018906083,0.007861173,0.298340016,-0.05275627,0.00342606
-0.050834224,-0.294742644,-0.954223573,-0.002403516,0.000126958,0.016509831,0.036282714,-0.019290594,0.009359732,0.299186177,-0.053222553,0.003664755
-0.050834224,-0.294742644,-0.954223573,-0.002403516,0.000126958,0.016509831,0.036282714,-0.019290594,0.009359732,0.299186177,-0.053222553,0.003664755
-0.050834224,-0.294742644,-0.954223573,-0.002403516,0.000126958,0.016509831,0.036282714,-0.019290594,0.009359732,0.299186177,-0.053222553,0.003664755
-0.051152404,-0.29499048,-0.954129994,-0.004664078,-0.015463889,0.017255485,-0.000591731,-0.00536081,0.009189877,0.299445542,-0.053560293,0.003914601
-0.051152404,-0.29499048,-0.954129994,-0.004664078,-0.015463889,0.017255485,-0.000591731,-0.00536081,0.009189877,0.299445542,-0.053560293,0.003914601
-0.051152404,-0.29499048,-0.954129994,-0.004664078,-0.015463889,0.017255485,-0.000591731,-0.00536081,0.009189877,0.299445542,-0.053560293,0.003914601
-0.05128755,-0.294764638,-0.954192519,-0.001782354,-0.011051089,0.015639544,-0.029418372,-0.000897401,0.004707296,0.299209195,-0.053698013,0.004008739
-0.05128755,-0.294764638,-0.954192519,-0.001782354,-0.011051089,0.015639544,-0.029418372,-0.000897401,0.004707296,0.299209195,-0.053698013,0.004008739
-0.05128755,-0.294764638,-0.954192519,-0.001782354,-0.011051089,0.015639544,-0.029418372,-0.000897401,0.004707296,0.299209195,-0.053698013,0.004008739
-0.051172733,-0.294405401,-0.954309583,-0.00443013,0.007602185,0.016565323,0.002022521,0.01091201,-0.000191535,0.298833297,-0.053571471,0.004005514
-0.051172733,-0.294405401,-0.954309583,-0.00443013,0.007602185,0.016565323,0.002022521,0.01091201,-0.000191535,0.298833297,-0.053571471,0.004005514
-0.051172733,-0.294405401,-0.954309583,-0.00443013,0.007602185,0.016565323,0.002022521,0.01091201,-0.000191535,0.298833297,-0.053571471,0.004005514
-0.051071823,-0.294915497,-0.954157472,0.000519622,0.022562325,0.012567997,0.051017161,0.003858303,0.000162932,0.299367076,-0.05347454,0.003969898
-0.051071823,-0.294915497,-0.954157472,0.000519622,0.022562325,0.012567997,0.051017161,0.003858303,0.000162932,0.299367076,-0.05347454,0.003969898
-0.051071823,-0.294915497,-0.954157472,0.000519622,0.022562325,0.012567997,0.051017161,0.003858303,0.000162932,0.299367076,-0.05347454,0.003969898
-0.051146496,-0.296538889,-0.953650236,0.002150703,0.014847398,0.010366976,0.081172094,-0.002255431,0.000677295,0.301066478,-0.053581007,0.004061992
-0.051146496,-0.296538889,-0.953650236,0.002150703,0.014847398,0.010366976,0.081172094,-0.002255431,0.000677295,0.301066478,-0.053581007,0.004061992
-0.051146496,-0.296538889,-0.953650236,0.002150703,0.014847398,0.010366976,0.081172094,-0.002255431,0.000677295,0.301066478,-0.053581007,0.004061992
-0.05131923,-0.298129767,-0.953144789,0.001026444,0.003132641,0.008488238,0.05108197,-0.003118586,0.000942546,0.302732728,-0.053790071,0.004189237
-0.05131923,-0.298129767,-0.953144789,0.001026444,0.003132641,0.008488238,0.05108197,-0.003118586,0.000942546,0.302732728,-0.053790071,0.004189237
-0.05131923,-0.298129767,-0.953144789,0.001026444,0.003132641,0.008488238,0.05108197,-0.003118586,0.000942546,0.302732728,-0.053790071,0.004189237
-0.05131923,-0.298129767,-0.953144789,0.001026444,0.003132641,0.008488238,0.05108197,-0.003118586,0.000942546,0.302732728,-0.053790071,0.004189237
-0.05131923,-0.298129767,-0.953144789,0.001026444,0.003132641,0.008488238,0.05108197,-0.003118586,0.000942546,0.302732728,-0.053790071,0.004189237
-0.051403131,-0.298671365,-0.952970684,0.00117138,-0.016085923,0.01313591,0.008853368,0.002838833,0.002780979,0.30330016,-0.053887667,0.004293149
-0.051403131,-0.298671365,-0.952970684,0.00117138,-0.016085923,0.01313591,0.008853368,0.002838833,0.002780979,0.30330016,-0.053887667,0.004293149
-0.051403131,-0.298671365,-0.952970684,0.00117138,-0.016085923,0.01313591,0.008853368,0.002838833,0.002780979,0.30330016,-0.053887667,0.004293149
-0.051403131,-0.298671365,-0.952970684,0.00117138,-0.016085923,0.01313591,0.008853368,0.002838833,0.002780979,0.30330016,-0.053887667,0.004293149
-0.051403131,-0.298671365,-0.952970684,0.00117138,-0.016085923,0.01313591,0.008853368,0.002838833,0.002780979,0.30330016,-0.053887667,0.004293149
-0.051403131,-0.298671365,-0.952970684,0.00117138,-0.016085923,0.01313591,0.008853368,0.002838833,0.002780979,0.30330016,-0.053887667,0.004293149
-0.051403131,-0.298671365,-0.952970684,0.00117138,-0.016085923,0.01313591,0.008853368,0.002838833,0.002780979,0.30330016,-0.053887667,0.004293149
-0.051403131,-0.298671365,-0.952970684,0.00117138,-0.016085923,0.01313591,0.008853368,0.002838833,0.002780979,0.30330016,-0.053887667,0.004293149
-0.051398512,-0.298217416,-0.953113079,0.005988535,-0.004561722,0.015841842,-0.010373548,0.001941578,0.007347395,0.302824554,-0.053874796,0.004321502
-0.051398512,-0.298217416,-0.953113079,0.005988535,-0.004561722,0.015841842,-0.010373548,0.001941578,0.007347395,0.302824554,-0.053874796,0.004321502
-0.051398512,-0.298217416,-0.953113079,0.005988535,-0.004561722,0.015841842,-0.010373548,0.001941578,0.007347395,0.302824554,-0.053874796,0.004321502
-0.051398512,-0.298217416,-0.953113079,0.005988535,-0.004561722,0.015841842,-0.010373548,0.001941578,0.007347395,0.302824554,-0.053874796,0.004321502
-0.051381856,-0.297834963,-0.9532336,0.006078687,0.00518769,0.01246804,0.006800645,0.000722649,0.002267681,0.302423901,-0.053850577,0.00436639
-0.051381856,-0.297834963,-0.9532336,0.006078687,0.00518769,0.01246804,0.006800645,0.000722649,0.002267681,0.302423901,-0.053850577,0.00436639
-0.051381856,-0.297834963,-0.9532336,0.006078687,0.00518769,0.01246804,0.006800645,0.000722649,0.002267681,0.302423901,-0.053850577,0.00436639
-0.051381856,-0.297834963,-0.9532336,0.006078687,0.00518769,0.01246804,0.006800645,0.000722649,0.002267681,0.302423901,-0.053850577,0.00436639
-0.051381856,-0.297834963,-0.9532336,0.006078687,0.00518769,0.01246804,0.006800645,0.000722649,0.002267681,0.302423901,-0.053850577,0.00436639
-0.051381856,-0.297834963,-0.9532336,0.006078687,0.00518769,0.01246804,0.006800645,0.000722649,0.002267681,0.302423901,-0.053850577,0.00436639
-0.051381856,-0.297834963,-0.9532336,0.006078687,0.00518769,0.01246804,0.006800645,0.000722649,0.002267681,0.302423901,-0.053850577,0.00436639
-0.051405478,-0.298264414,-0.953097999,0.005568266,0.013612807,0.012485027,0.045435935,-0.001918541,-0.001829804,0.302873793,-0.053882936,0.004417266
-0.051405478,-0.298264414,-0.953097999,0.005568266,0.013612807,0.012485027,0.045435935,-0.001918541,-0.001829804,0.302873793,-0.053882936,0.004417266
-0.051405478,-0.298264414,-0.953097999,0.005568266,0.013612807,0.012485027,0.045435935,-0.001918541,-0.001829804,0.302873793,-0.053882936,0.004417266
-0.051405478,-0.298264414,-0.953097999,0.005568266,0.013612807,0.012485027,0.045435935,-0.001918541,-0.001829804,0.302873793,-0.053882936,0.004417266
-0.051405478,-0.298264414,-0.953097999,0.005568266,0.013612807,0.012485027,0.045435935,-0.001918541,-0.001829804,0.302873793,-0.053882936,0.004417266
-0.051405478,-0.298264414,-0.953097999,0.005568266,0.013612807,0.012485027,0.045435935,-0.001918541,-0.001829804,0.302873793,-0.053882936,0.004417266
-0.051405478,-0.298264414,-0.953097999,0.005568266,0.013612807,0.012485027,0.045435935,-0.001918541,-0.001829804,0.302873793,-0.053882936,0.004417266
-0.051405478,-0.298264414,-0.953097999,0.005568266,0.013612807,0.012485027,0.045435935,-0.001918541,-0.001829804,0.302873793,-0.053882936,0.004417266
-0.051405478,-0.298264414,-0.953097999,0.005568266,0.013612807,0.012485027,0.045435935,-0.001918541,-0.001829804,0.302873793,-0.053882936,0.004417266
-0.051344737,-0.299751997,-0.952634513,-0.002427049,0.010385424,0.010327816,0.077837154,0.006585441,-0.003750742,0.304432673,-0.053845525,0.004376263
-0.051344737,-0.299751997,-0.952634513,-0.002427049,0.010385424,0.010327816,0.077837154,0.006585441,-0.003750742,0.304432673,-0.053845525,0.004376263
-0.051344737,-0.299751997,-0.952634513,-0.002427049,0.010385424,0.010327816,0.077837154,0.006585441,-0.003750742,0.304432673,-0.053845525,0.004376263
-0.051344737,-0.299751997,-0.952634513,-0.002427049,0.010385424,0.010327816,0.077837154,0.006585441,-0.003750742,0.304432673,-0.053845525,0.004376263
-0.051344737,-0.299751997,-0.952634513,-0.002427049,0.010385424,0.010327816,0.077837154,0.006585441,-0.003750742,0.304432673,-0.053845525,0.004376263
-0.051344737,-0.299751997,-0.952634513,-0.002427049,0.010385424,0.010327816,0.077837154,0.006585441,-0.003750742,0.304432673,-0.053845525,0.004376263
-0.051344737,-0.299751997,-0.952634513,-0.002427049,0.010385424,0.010327816,0.077837154,0.006585441,-0.003750742,0.304432673,-0.053845525,0.004376263
-0.051344737,-0.299751997,-0.952634513,-0.002427049,0.010385424,0.010327816,0.077837154,0.006585441,-0.003750742,0.304432673,-0.053845525,0.004376263
-0.051344737,-0.299751997,-0.952634513,-0.002427049,0.010385424,0.010327816,0.077837154,0.006585441,-0.003750742,0.304432673,-0.053845525,0.004376263
-0.051344737,-0.299751997,-0.952634513,-0.002427049,0.010385424,0.010327816,0.077837154,0.006585441,-0.003750742,0.304432673,-0.053845525,0.004376263
-0.051344737,-0.299751997,-0.952634513,-0.002427049,0.010385424,0.010327816,0.077837154,0.006585441,-0.003750742,0.304432673,-0.053845525,0.004376263
-0.051344737,-0.299751997,-0.952634513,-0.002427049,0.010385424,0.010327816,0.077837154,0.006585441,-0.003750742,0.304432673,-0.053845525,0.004376263
-0.051344737,-0.299751997,-0.952634513,-0.002427049,0.010385424,0.010327816,0.077837154,0.006585441,-0.003750742,0.304432673,-0.053845525,0.004376263
-0.05125796,-0.301433444,-0.952108443,0.002567366,0.011166662,0.011495471,0.073981293,-0.004303668,-0.003930506,0.306195662,-0.053784341,0.004381389
-0.05125796,-0.301433444,-0.952108443,0.002567366,0.011166662,0.011495471,0.073981293,-0.004303668,-0.003930506,0.306195662,-0.053784341,0.004381389
-0.05125796,-0.301433444,-0.952108443,0.002567366,0.011166662,0.011495471,0.073981293,-0.004303668,-0.003930506,0.306195662,-0.053784341,0.004381389
-0.05125796,-0.301433444,-0.952108443,0.002567366,0.011166662,0.011495471,0.073981293,-0.004303668,-0.003930506,0.306195662,-0.053784341,0.004381389
-0.05125796,-0.301433444,-0.952108443,0.002567366,0.011166662,0.011495471,0.073981293,-0.004303668,-0.003930506,0.306195662,-0.053784341,0.004381389
-0.05125796,-0.301433444,-0.952108443,0.002567366,0.011166662,0.011495471,0.073981293,-0.004303668,-0.003930506,0.306195662,-0.053784341,0.004381389
-0.05125796,-0.301433444,-0.952108443,0.002567366,0.011166662,0.011495471,0.073981293,-0.004303668,-0.003930506,0.306195662,-0.053784341,0.004381389
-0.05125796,-0.301433444,-0.952108443,0.002567366,0.011166662,0.011495471,0.073981293,-0.004303668,-0.003930506,0.306195662,-0.053784341,0.004381389
-0.05125796,-0.301433444,-0.952108443,0.002567366,0.011166662,0.011495471,0.073981293,-0.004303668,-0.003930506,0.306195662,-0.053784341,0.004381389
-0.05125796,-0.301433444,-0.952108443,0.002567366,0.011166662,0.011495471,0.073981293,-0.004303668,-0.003930506,0.306195662,-0.053784341,0.004381389
-0.05125796,-0.301433444,-0.952108443,0.002567366,0.011166662,0.011495471,0.073981293,-0.004303668,-0.003930506,0.306195662,-0.053784341,0.004381389
-0.05125796,-0.301433444,-0.952108443,0.002567366,0.011166662,0.011495471,0.073981293,-0.004303668,-0.003930506,0.306195662,-0.053784341,0.004381389
-0.050848961,-0.302877575,-0.951671958,-0.000298291,-0.008491993,0.015255153,0.028311197,0.014122912,0.003426955,0.307710601,-0.053380423,0.004446435
-0.050848961,-0.302877575,-0.951671958,-0.000298291,-0.008491993,0.015255153,0.028311197,0.014122912,0.003426955,0.307710601,-0.053380423,0.004446435
-0.050848961,-0.302877575,-0.951671958,-0.000298291,-0.008491993,0.015255153,0.028311197,0.014122912,0.003426955,0.307710601,-0.053380423,0.004446435
-0.050848961,-0.302877575,-0.951671958,-0.000298291,-0.008491993,0.015255153,0.028311197,0.014122912,0.003426955,0.307710601,-0.053380423,0.004446435
-0.050848961,-0.302877575,-0.951671958,-0.000298291,-0.008491993,0.015255153,0.028311197,0.014122912,0.003426955,0.307710601,-0.053380423,0.004446435
-0.050848961,-0.302877575,-0.951671958,-0.000298291,-0.008491993,0.015255153,0.028311197,0.014122912,0.003426955,0.307710601,-0.053380423,0.004446435
-0.050179806,-0.304655105,-0.951139987,-0.00426333,0.01679939,0.016813576,0.095165983,0.021629144,-0.014240775,0.309576288,-0.052708673,0.004284223
-0.050179806,-0.304655105,-0.951139987,-0.00426333,0.01679939,0.016813576,0.095165983,0.021629144,-0.014240775,0.309576288,-0.052708673,0.004284223
-0.050179806,-0.304655105,-0.951139987,-0.00426333,0.01679939,0.016813576,0.095165983,0.021629144,-0.014240775,0.309576288,-0.052708673,0.004284223
-0.050179806,-0.304655105,-0.951139987,-0.00426333,0.01679939,0.016813576,0.095165983,0.021629144,-0.014240775,0.309576288,-0.052708673,0.004284223
-0.050179806,-0.304655105,-0.951139987,-0.00426333,0.01679939,0.016813576,0.095165983,0.021629144,-0.014240775,0.309576288,-0.052708673,0.004284223
-0.049619138,-0.306888193,-0.950451255,-0.003084499,0.011418372,0.013805509,0.121127792,0.031068798,-0.018519729,0.311921718,-0.052158523,0.004120255
-0.049619138,-0.306888193,-0.950451255,-0.003084499,0.011418372,0.013805509,0.121127792,0.031068798,-0.018519729,0.311921718,-0.052158523,0.004120255
-0.049619138,-0.306888193,-0.950451255,-0.003084499,0.011418372,0.013805509,0.121127792,0.031068798,-0.018519729,0.311921718,-0.052158523,0.004120255
-0.049619138,-0.306888193,-0.950451255,-0.003084499,0.011418372,0.013805509,0.121127792,0.031068798,-0.018519729,0.311921718,-0.052158523,0.004120255
-0.049619138,-0.306888193,-0.950451255,-0.003084499,0.011418372,0.013805509,0.121127792,0.031068798,-0.018519729,0.311921718,-0.052158523,0.004120255
-0.049619138,-0.306888193,-0.950451255,-0.003084499,0.011418372,0.013805509,0.121127792,0.031068798,-0.018519729,0.311921718,-0.052158523,0.004120255
-0.049619138,-0.306888193,-0.950451255,-0.003084499,0.011418372,0.013805509,0.121127792,0.031068798,-0.018519729,0.311921718,-0.052158523,0.004120255
-0.049619138,-0.306888193,-0.950451255,-0.003084499,0.011418372,0.013805509,0.121127792,0.031068798,-0.018519729,0.311921718,-0.052158523,0.004120255
-0.049619138,-0.306888193,-0.950451255,-0.003084499,0.011418372,0.013805509,0.121127792,0.031068798,-0.018519729,0.311921718,-0.052158523,0.004120255
-0.048362669,-0.313756287,-0.948271096,-0.00086198,0.002661407,0.012159407,0.118469425,0.017202303,0.002125629,0.31914652,-0.05095674,0.00421644
-0.048362669,-0.313756287,-0.948271096,-0.00086198,0.002661407,0.012159407,0.118469425,0.017202303,0.002125629,0.31914652,-0.05095674,0.00421644
-0.048362669,-0.313756287,-0.948271096,-0.00086198,0.002661407,0.012159407,0.118469425,0.017202303,0.002125629,0.31914652,-0.05095674,0.00421644
-0.048362669,-0.313756287,-0.948271096,-0.00086198,0.002661407,0.012159407,0.118469425,0.017202303,0.002125629,0.31914652,-0.05095674,0.00421644
-0.048362669,-0.313756287,-0.948271096,-0.00086198,0.002661407,0.012159407,0.118469425,0.017202303,0.002125629,0.31914652,-0.05095674,0.00421644
-0.048362669,-0.313756287,-0.948271096,-0.00086198,0.002661407,0.012159407,0.118469425,0.017202303,0.002125629,0.31914652,-0.05095674,0.00421644
-0.048128713,-0.31537655,-0.947745383,-0.002850696,-0.004507393,0.014517605,0.084777623,0.019790422,-0.00114239,0.320853442,-0.050738741,0.004356835
-0.048128713,-0.31537655,-0.947745383,-0.002850696,-0.004507393,0.014517605,0.084777623,0.019790422,-0.00114239,0.320853442,-0.050738741,0.004356835
-0.048128713,-0.31537655,-0.947745383,-0.002850696,-0.004507393,0.014517605,0.084777623,0.019790422,-0.00114239,0.320853442,-0.050738741,0.004356835
-0.048128713,-0.31537655,-0.947745383,-0.002850696,-0.004507393,0.014517605,0.084777623,0.019790422,-0.00114239,0.320853442,-0.050738741,0.004356835
-0.047897961,-0.316498339,-0.947383046,0.003388282,-0.010969192,0.013087153,0.041931268,0.015989546,-0.003698865,0.322035764,-0.050515168,0.004385356
-0.047897961,-0.316498339,-0.947383046,0.003388282,-0.010969192,0.013087153,0.041931268,0.015989546,-0.003698865,0.322035764,-0.050515168,0.004385356
-0.047897961,-0.316498339,-0.947383046,0.003388282,-0.010969192,0.013087153,0.041931268,0.015989546,-0.003698865,0.322035764,-0.050515168,0.004385356
-0.047897961,-0.316498339,-0.947383046,0.003388282,-0.010969192,0.013087153,0.041931268,0.015989546,-0.003698865,0.322035764,-0.050515168,0.004385356
-0.047897961,-0.316498339,-0.947383046,0.003388282,-0.010969192,0.013087153,0.041931268,0.015989546,-0.003698865,0.322035764,-0.050515168,0.004385356
-0.047897961,-0.316498339,-0.947383046,0.003388282,-0.010969192,0.013087153,0.041931268,0.015989546,-0.003698865,0.322035764,-0.050515168,0.004385356
-0.047897961,-0.316498339,-0.947383046,0.003388282,-0.010969192,0.013087153,0.041931268,0.015989546,-0.003698865,0.322035764,-0.050515168,0.004385356
-0.047897961,-0.316498339,-0.947383046,0.003388282,-0.010969192,0.013087153,0.041931268,0.015989546,-0.003698865,0.322035764,-0.050515168,0.004385356
-0.047575179,-0.316906929,-0.947262704,0.004499827,-0.00781399,0.012646377,0.020456122,0.009729834,-0.004361513,0.322466533,-0.050181685,0.004309612
-0.047575179,-0.316906929,-0.947262704,0.004499827,-0.00781399,0.012646377,0.020456122,0.009729834,-0.004361513,0.322466533,-0.050181685,0.004309612
-0.047575179,-0.316906929,-0.947262704,0.004499827,-0.00781399,0.012646377,0.020456122,0.009729834,-0.004361513,0.322466533,-0.050181685,0.004309612
-0.047575179,-0.316906929,-0.947262704,0.004499827,-0.00781399,0.012646377,0.020456122,0.009729834,-0.004361513,0.322466533,-0.050181685,0.004309612
-0.04754179,-0.317171901,-0.947175682,0.009303477,0.002277672,0.01097244,0.017762881,-0.006265728,0.005370529,0.32274594,-0.050151126,0.004364274
-0.04754179,-0.317171901,-0.947175682,0.009303477,0.002277672,0.01097244,0.017762881,-0.006265728,0.005370529,0.32274594,-0.050151126,0.004364274
-0.04754179,-0.317171901,-0.947175682,0.009303477,0.002277672,0.01097244,0.017762881,-0.006265728,0.005370529,0.32274594,-0.050151126,0.004364274
-0.04754179,-0.317171901,-0.947175682,0.009303477,0.002277672,0.01097244,0.017762881,-0.006265728,0.005370529,0.32274594,-0.050151126,0.004364274
-0.04754179,-0.317171901,-0.947175682,0.009303477,0.002277672,0.01097244,0.017762881,-0.006265728,0.005370529,0.32274594,-0.050151126,0.004364274
-0.047836285,-0.317532957,-0.947039902,0.005981635,0.005644679,0.013445914,0.014020141,-0.007831921,0.011876898,0.32312666,-0.050468481,0.004587983
-0.047836285,-0.317532957,-0.947039902,0.005981635,0.005644679,0.013445914,0.014020141,-0.007831921,0.011876898,0.32312666,-0.050468481,0.004587983
-0.048241958,-0.318563193,-0.946673214,0.005227655,0.005789995,0.011446536,0.026504416,-0.01560863,0.021781888,0.324213326,-0.050915418,0.005259233
-0.048241958,-0.318563193,-0.946673214,0.005227655,0.005789995,0.011446536,0.026504416,-0.01560863,0.021781888,0.324213326,-0.050915418,0.005259233
-0.048241958,-0.318563193,-0.946673214,0.005227655,0.005789995,0.011446536,0.026504416,-0.01560863,0.021781888,0.324213326,-0.050915418,0.005259233
-0.048241958,-0.318563193,-0.946673214,0.005227655,0.005789995,0.011446536,0.026504416,-0.01560863,0.021781888,0.324213326,-0.050915418,0.005259233
-0.048241958,-0.318563193,-0.946673214,0.005227655,0.005789995,0.011446536,0.026504416,-0.01560863,0.021781888,0.324213326,-0.050915418,0.005259233
-0.048578642,-0.319288075,-0.946411788,0.005167611,0.008803695,0.012680471,0.045400314,-0.019057788,0.027103042,0.324978149,-0.051284281,0.005781144
-0.048578642,-0.319288075,-0.946411788,0.005167611,0.008803695,0.012680471,0.045400314,-0.019057788,0.027103042,0.324978149,-0.051284281,0.005781144
-0.048578642,-0.319288075,-0.946411788,0.005167611,0.008803695,0.012680471,0.045400314,-0.019057788,0.027103042,0.324978149,-0.051284281,0.005781144
-0.048578642,-0.319288075,-0.946411788,0.005167611,0.008803695,0.012680471,0.045400314,-0.019057788,0.027103042,0.324978149,-0.051284281,0.005781144
-0.048967801,-0.320275992,-0.946057856,0.002825461,0.010585129,0.012128174,0.067556076,-0.019320749,0.025871012,0.326020806,-0.051713689,0.00634374
-0.048967801,-0.320275992,-0.946057856,0.002825461,0.010585129,0.012128174,0.067556076,-0.019320749,0.025871012,0.326020806,-0.051713689,0.00634374
-0.048967801,-0.320275992,-0.946057856,0.002825461,0.010585129,0.012128174,0.067556076,-0.019320749,0.025871012,0.326020806,-0.051713689,0.00634374
-0.048967801,-0.320275992,-0.946057856,0.002825461,0.010585129,0.012128174,0.067556076,-0.019320749,0.025871012,0.326020806,-0.051713689,0.00634374
-0.048967801,-0.320275992,-0.946057856,0.002825461,0.010585129,0.012128174,0.067556076,-0.019320749,0.025871012,0.326020806,-0.051713689,0.00634374
-0.048967801,-0.320275992,-0.946057856,0.002825461,0.010585129,0.012128174,0.067556076,-0.019320749,0.025871012,0.326020806,-0.051713689,0.00634374
-0.049437422,-0.321526855,-0.945609033,0.000899442,0.003184199,0.011999786,0.061129957,-0.020782547,0.022204477,0.327341516,-0.052233481,0.006886433
-0.049437422,-0.321526855,-0.945609033,0.000899442,0.003184199,0.011999786,0.061129957,-0.020782547,0.022204477,0.327341516,-0.052233481,0.006886433
-0.049437422,-0.321526855,-0.945609033,0.000899442,0.003184199,0.011999786,0.061129957,-0.020782547,0.022204477,0.327341516,-0.052233481,0.006886433
-0.049437422,-0.321526855,-0.945609033,0.000899442,0.003184199,0.011999786,0.061129957,-0.020782547,0.022204477,0.327341516,-0.052233481,0.006886433
-0.049437422,-0.321526855,-0.945609033,0.000899442,0.003184199,0.011999786,0.061129957,-0.020782547,0.022204477,0.327341516,-0.052233481,0.006886433
-0.049437422,-0.321526855,-0.945609033,0.000899442,0.003184199,0.011999786,0.061129957,-0.020782547,0.022204477,0.327341516,-0.052233481,0.006886433
-0.049437422,-0.321526855,-0.945609033,0.000899442,0.003184199,0.011999786,0.061129957,-0.020782547,0.022204477,0.327341516,-0.052233481,0.006886433
-0.049639501,-0.322268814,-0.945345819,-0.00401016,-0.009409934,0.016009033,0.025719646,-0.005040977,0.007838375,0.328125201,-0.052461177,0.007255643
-0.049639501,-0.322268814,-0.945345819,-0.00401016,-0.009409934,0.016009033,0.025719646,-0.005040977,0.007838375,0.328125201,-0.052461177,0.007255643
-0.049639501,-0.322268814,-0.945345819,-0.00401016,-0.009409934,0.016009033,0.025719646,-0.005040977,0.007838375,0.328125201,-0.052461177,0.007255643
-0.049639501,-0.322268814,-0.945345819,-0.00401016,-0.009409934,0.016009033,0.025719646,-0.005040977,0.007838375,0.328125201,-0.052461177,0.007255643
-0.049639501,-0.322268814,-0.945345819,-0.00401016,-0.009409934,0.016009033,0.025719646,-0.005040977,0.007838375,0.328125201,-0.052461177,0.007255643
-0.049520478,-0.322291017,-0.945344508,-0.005182043,-0.015979528,0.02018863,-0.007219274,0.004168925,0.001488813,0.328148662,-0.052335689,0.007330024
-0.049520478,-0.322291017,-0.945344508,-0.005182043,-0.015979528,0.02018863,-0.007219274,0.004168925,0.001488813,0.328148662,-0.052335689,0.007330024
-0.049520478,-0.322291017,-0.945344508,-0.005182043,-0.015979528,0.02018863,-0.007219274,0.004168925,0.001488813,0.328148662,-0.052335689,0.007330024
-0.049484055,-0.321785986,-0.945518434,0.001449626,0.002985656,0.013801277,0.00034911,-0.002587347,0.007430379,0.327615199,-0.052287664,0.007304444
-0.049484055,-0.321785986,-0.945518434,0.001449626,0.002985656,0.013801277,0.00034911,-0.002587347,0.007430379,0.327615199,-0.052287664,0.007304444
-0.049484055,-0.321785986,-0.945518434,0.001449626,0.002985656,0.013801277,0.00034911,-0.002587347,0.007430379,0.327615199,-0.052287664,0.007304444
-0.04985645,-0.322731078,-0.945176721,-0.002129987,-0.000662029,0.014695466,0.008316888,0.001753315,-0.001962323,0.328613561,-0.052699445,0.007357465
-0.04985645,-0.322731078,-0.945176721,-0.002129987,-0.000662029,0.014695466,0.008316888,0.001753315,-0.001962323,0.328613561,-0.052699445,0.007357465
-0.04973045,-0.323010296,-0.945087969,-0.004651632,0.001051426,0.014683008,0.00580192,0.010912037,-0.00155518,0.328908563,-0.052571432,0.007349083
-0.04973045,-0.323010296,-0.945087969,-0.004651632,0.001051426,0.014683008,0.00580192,0.010912037,-0.00155518,0.328908563,-0.052571432,0.007349083
-0.04973045,-0.323010296,-0.945087969,-0.004651632,0.001051426,0.014683008,0.00580192,0.010912037,-0.00155518,0.328908563,-0.052571432,0.007349083
-0.04973045,-0.323010296,-0.945087969,-0.004651632,0.001051426,0.014683008,0.00580192,0.010912037,-0.00155518,0.328908563,-0.052571432,0.007349083
-0.049584631,-0.323120922,-0.945057809,0.001321305,0.000856787,0.014317214,0.008833449,0.003768519,-0.00185111,0.329025472,-0.052419235,0.007335202
-0.049584631,-0.323120922,-0.945057809,0.001321305,0.000856787,0.014317214,0.008833449,0.003768519,-0.00185111,0.329025472,-0.052419235,0.007335202
-0.049584631,-0.323120922,-0.945057809,0.001321305,0.000856787,0.014317214,0.008833449,0.003768519,-0.00185111,0.329025472,-0.052419235,0.007335202
-0.049584631,-0.323120922,-0.945057809,0.001321305,0.000856787,0.014317214,0.008833449,0.003768519,-0.00185111,0.329025472,-0.052419235,0.007335202
-0.049584631,-0.323120922,-0.945057809,0.001321305,0.000856787,0.014317214,0.008833449,0.003768519,-0.00185111,0.329025472,-0.052419235,0.007335202
-0.049565926,-0.323331118,-0.94498688,-0.001108285,0.005629361,0.016245186,0.02175729,0.005604597,-0.002642921,0.329247577,-0.052403421,0.007325413
-0.049565926,-0.323331118,-0.94498688,-0.001108285,0.005629361,0.016245186,0.02175729,0.005604597,-0.002642921,0.329247577,-0.052403421,0.007325413
-0.049565926,-0.323331118,-0.94498688,-0.001108285,0.005629361,0.016245186,0.02175729,0.005604597,-0.002642921,0.329247577,-0.052403421,0.007325413
-0.049549442,-0.323923796,-0.94478476,-0.001155287,0.009456903,0.012289405,0.033819482,0.005466949,-0.002136654,0.329873979,-0.052397211,0.007396205
-0.049549442,-0.323923796,-0.94478476,-0.001155287,0.009456903,0.012289405,0.033819482,0.005466949,-0.002136654,0.329873979,-0.052397211,0.007396205
-0.049549442,-0.323923796,-0.94478476,-0.001155287,0.009456903,0.012289405,0.033819482,0.005466949,-0.002136654,0.329873979,-0.052397211,0.007396205
-0.049549442,-0.323923796,-0.94478476,-0.001155287,0.009456903,0.012289405,0.033819482,0.005466949,-0.002136654,0.329873979,-0.052397211,0.007396205
-0.049549442,-0.323923796,-0.94478476,-0.001155287,0.009456903,0.012289405,0.033819482,0.005466949,-0.002136654,0.329873979,-0.052397211,0.007396205
-0.049549442,-0.323923796,-0.94478476,-0.001155287,0.009456903,0.012289405,0.033819482,0.005466949,-0.002136654,0.329873979,-0.052397211,0.007396205
-0.049549442,-0.323923796,-0.94478476,-0.001155287,0.009456903,0.012289405,0.033819482,0.005466949,-0.002136654,0.329873979,-0.052397211,0.007396205
-0.049456518,-0.324635684,-0.944545269,-0.001461834,-0.001443177,0.012278795,0.030767683,0.012065803,-0.00516845,0.330626514,-0.052312363,0.007392867
-0.049456518,-0.324635684,-0.944545269,-0.001461834,-0.001443177,0.012278795,0.030767683,0.012065803,-0.00516845,0.330626514,-0.052312363,0.007392867
-0.049456518,-0.324635684,-0.944545269,-0.001461834,-0.001443177,0.012278795,0.030767683,0.012065803,-0.00516845,0.330626514,-0.052312363,0.007392867
-0.049456518,-0.324635684,-0.944545269,-0.001461834,-0.001443177,0.012278795,0.030767683,0.012065803,-0.00516845,0.330626514,-0.052312363,0.007392867
-0.049456518,-0.324635684,-0.944545269,-0.001461834,-0.001443177,0.012278795,0.030767683,0.012065803,-0.00516845,0.330626514,-0.052312363,0.007392867
-0.049456518,-0.324635684,-0.944545269,-0.001461834,-0.001443177,0.012278795,0.030767683,0.012065803,-0.00516845,0.330626514,-0.052312363,0.007392867
-0.049456518,-0.324635684,-0.944545269,-0.001461834,-0.001443177,0.012278795,0.030767683,0.012065803,-0.00516845,0.330626514,-0.052312363,0.007392867
-0.049456518,-0.324635684,-0.944545269,-0.001461834,-0.001443177,0.012278795,0.030767683,0.012065803,-0.00516845,0.330626514,-0.052312363,0.007392867
-0.049238387,-0.325104147,-0.944395542,0.004469343,0.000642836,0.012098491,0.01109466,0.009181248,-0.002641057,0.331121849,-0.052090299,0.007290821
-0.049238387,-0.325104147,-0.944395542,0.004469343,0.000642836,0.012098491,0.01109466,0.009181248,-0.002641057,0.331121849,-0.052090299,0.007290821
-0.049238387,-0.325104147,-0.944395542,0.004469343,0.000642836,0.012098491,0.01109466,0.009181248,-0.002641057,0.331121849,-0.052090299,0.007290821
-0.049238387,-0.325104147,-0.944395542,0.004469343,0.000642836,0.012098491,0.01109466,0.009181248,-0.002641057,0.331121849,-0.052090299,0.007290821
-0.049238387,-0.325104147,-0.944395542,0.004469343,0.000642836,0.012098491,0.01109466,0.009181248,-0.002641057,0.331121849,-0.052090299,0.007290821
-0.049238387,-0.325104147,-0.944395542,0.004469343,0.000642836,0.012098491,0.01109466,0.009181248,-0.002641057,0.331121849,-0.052090299,0.007290821
-0.049238387,-0.325104147,-0.944395542,0.004469343,0.000642836,0.012098491,0.01109466,0.009181248,-0.002641057,0.331121849,-0.052090299,0.007290821
-0.049238387,-0.325104147,-0.944395542,0.004469343,0.000642836,0.012098491,0.01109466,0.009181248,-0.002641057,0.331121849,-0.052090299,0.007290821
-0.049194194,-0.325253785,-0.944346309,0.007171717,-0.00029099,0.01252234,0.00794366,0.001190796,0.002984019,0.331280093,-0.052046339,0.007344935
-0.049194194,-0.325253785,-0.944346309,0.007171717,-0.00029099,0.01252234,0.00794366,0.001190796,0.002984019,0.331280093,-0.052046339,0.007344935
-0.049194194,-0.325253785,-0.944346309,0.007171717,-0.00029099,0.01252234,0.00794366,0.001190796,0.002984019,0.331280093,-0.052046339,0.007344935
-0.049194194,-0.325253785,-0.944346309,0.007171717,-0.00029099,0.01252234,0.00794366,0.001190796,0.002984019,0.331280093,-0.052046339,0.007344935
-0.049194194,-0.325253785,-0.944346309,0.007171717,-0.00029099,0.01252234,0.00794366,0.001190796,0.002984019,0.331280093,-0.052046339,0.007344935
-0.049194194,-0.325253785,-0.944346309,0.007171717,-0.00029099,0.01252234,0.00794366,0.001190796,0.002984019,0.331280093,-0.052046339,0.007344935
-0.04938652,-0.325378031,-0.944293439,0.005197294,0.008713841,0.013522327,0.017344872,-0.01697321,0.006433026,0.331411474,-0.052252363,0.007480344
-0.04938652,-0.325378031,-0.944293439,0.005197294,0.008713841,0.013522327,0.017344872,-0.01697321,0.006433026,0.331411474,-0.052252363,0.007480344
-0.04938652,-0.325378031,-0.944293439,0.005197294,0.008713841,0.013522327,0.017344872,-0.01697321,0.006433026,0.331411474,-0.052252363,0.007480344
-0.04977794,-0.325777918,-0.94413501,0.004078086,0.004993826,0.012539923,0.015047402,-0.022843119,-0.001756568,0.331834405,-0.052674557,0.007525196
-0.04977794,-0.325777918,-0.94413501,0.004078086,0.004993826,0.012539923,0.015047402,-0.022843119,-0.001756568,0.331834405,-0.052674557,0.007525196
-0.04977794,-0.325777918,-0.94413501,0.004078086,0.004993826,0.012539923,0.015047402,-0.022843119,-0.001756568,0.331834405,-0.052674557,0.007525196
-0.05007996,-0.325986564,-0.944047034,0.0018319,-0.005890578,0.013703108,-0.005933247,-0.019622825,-0.005601107,0.332055118,-0.052998487,0.007440624
-0.05007996,-0.325986564,-0.944047034,0.0018319,-0.005890578,0.013703108,-0.005933247,-0.019622825,-0.005601107,0.332055118,-0.052998487,0.007440624
-0.05007996,-0.325986564,-0.944047034,0.0018319,-0.005890578,0.013703108,-0.005933247,-0.019622825,-0.005601107,0.332055118,-0.052998487,0.007440624
-0.05007996,-0.325986564,-0.944047034,0.0018319,-0.005890578,0.013703108,-0.005933247,-0.019622825,-0.005601107,0.332055118,-0.052998487,0.007440624
-0.05007996,-0.325986564,-0.944047034,0.0018319,-0.005890578,0.013703108,-0.005933247,-0.019622825,-0.005601107,0.332055118,-0.052998487,0.007440624
-0.05007996,-0.325986564,-0.944047034,0.0018319,-0.005890578,0.013703108,-0.005933247,-0.019622825,-0.005601107,0.332055118,-0.052998487,0.007440624
-0.05007996,-0.325986564,-0.944047034,0.0018319,-0.005890578,0.013703108,-0.005933247,-0.019622825,-0.005601107,0.332055118,-0.052998487,0.007440624
-0.05007996,-0.325986564,-0.944047034,0.0018319,-0.005890578,0.013703108,-0.005933247,-0.019622825,-0.005601107,0.332055118,-0.052998487,0.007440624
-0.050345253,-0.325605363,-0.944164455,0.004935328,-0.009552449,0.01342386,-0.044929702,-0.022610407,-0.001534141,0.331651914,-0.053272097,0.007273385
-0.050345253,-0.325605363,-0.944164455,0.004935328,-0.009552449,0.01342386,-0.044929702,-0.022610407,-0.001534141,0.331651914,-0.053272097,0.007273385
-0.050345253,-0.325605363,-0.944164455,0.004935328,-0.009552449,0.01342386,-0.044929702,-0.022610407,-0.001534141,0.331651914,-0.053272097,0.007273385
-0.050345253,-0.325605363,-0.944164455,0.004935328,-0.009552449,0.01342386,-0.044929702,-0.022610407,-0.001534141,0.331651914,-0.053272097,0.007273385
-0.050345253,-0.325605363,-0.944164455,0.004935328,-0.009552449,0.01342386,-0.044929702,-0.022610407,-0.001534141,0.331651914,-0.053272097,0.007273385
-0.050345253,-0.325605363,-0.944164455,0.004935328,-0.009552449,0.01342386,-0.044929702,-0.022610407,-0.001534141,0.331651914,-0.053272097,0.007273385
-0.050614651,-0.324550837,-0.944513083,0.004029803,-0.008119792,0.012460232,-0.053144861,-0.014922103,0.01584176,0.330536815,-0.053536882,0.007391306
-0.050614651,-0.324550837,-0.944513083,0.004029803,-0.008119792,0.012460232,-0.053144861,-0.014922103,0.01584176,0.330536815,-0.053536882,0.007391306
-0.050614651,-0.324550837,-0.944513083,0.004029803,-0.008119792,0.012460232,-0.053144861,-0.014922103,0.01584176,0.330536815,-0.053536882,0.007391306
-0.050614651,-0.324550837,-0.944513083,0.004029803,-0.008119792,0.012460232,-0.053144861,-0.014922103,0.01584176,0.330536815,-0.053536882,0.007391306
-0.050614651,-0.324550837,-0.944513083,0.004029803,-0.008119792,0.012460232,-0.053144861,-0.014922103,0.01584176,0.330536815,-0.053536882,0.007391306
-0.050614651,-0.324550837,-0.944513083,0.004029803,-0.008119792,0.012460232,-0.053144861,-0.014922103,0.01584176,0.330536815,-0.053536882,0.007391306
-0.051014096,-0.323627144,-0.944808483,0.004749678,0.009602755,0.01151967,-0.036230393,-0.033155132,-0.000804328,0.329560433,-0.053941732,0.00745307
-0.051014096,-0.323627144,-0.944808483,0.004749678,0.009602755,0.01151967,-0.036230393,-0.033155132,-0.000804328,0.329560433,-0.053941732,0.00745307
-0.051014096,-0.323627144,-0.944808483,0.004749678,0.009602755,0.01151967,-0.036230393,-0.033155132,-0.000804328,0.329560433,-0.053941732,0.00745307
-0.051014096,-0.323627144,-0.944808483,0.004749678,0.009602755,0.01151967,-0.036230393,-0.033155132,-0.000804328,0.329560433,-0.053941732,0.00745307
-0.051014096,-0.323627144,-0.944808483,0.004749678,0.009602755,0.01151967,-0.036230393,-0.033155132,-0.000804328,0.329560433,-0.053941732,0.00745307
-0.051014096,-0.323627144,-0.944808483,0.004749678,0.009602755,0.01151967,-0.036230393,-0.033155132,-0.000804328,0.329560433,-0.053941732,0.00745307
-0.051014096,-0.323627144,-0.944808483,0.004749678,0.009602755,0.01151967,-0.036230393,-0.033155132,-0.000804328,0.329560433,-0.053941732,0.00745307
-0.051014096,-0.323627144,-0.944808483,0.004749678,0.009602755,0.01151967,-0.036230393,-0.033155132,-0.000804328,0.329560433,-0.053941732,0.00745307
-0.051014096,-0.323627144,-0.944808483,0.004749678,0.009602755,0.01151967,-0.036230393,-0.033155132,-0.000804328,0.329560433,-0.053941732,0.00745307
-0.051902756,-0.32345292,-0.944819748,0.005104303,0.012907654,0.012293816,-0.002890013,-0.050900042,0.012770602,0.329376307,-0.054878871,0.007599832
-0.051902756,-0.32345292,-0.944819748,0.005104303,0.012907654,0.012293816,-0.002890013,-0.050900042,0.012770602,0.329376307,-0.054878871,0.007599832
-0.051902756,-0.32345292,-0.944819748,0.005104303,0.012907654,0.012293816,-0.002890013,-0.050900042,0.012770602,0.329376307,-0.054878871,0.007599832
-0.051902756,-0.32345292,-0.944819748,0.005104303,0.012907654,0.012293816,-0.002890013,-0.050900042,0.012770602,0.329376307,-0.054878871,0.007599832
-0.051902756,-0.32345292,-0.944819748,0.005104303,0.012907654,0.012293816,-0.002890013,-0.050900042,0.012770602,0.329376307,-0.054878871,0.007599832
-0.052974902,-0.323841572,-0.944627106,0.00167511,0.012197644,0.012360573,0.005631823,-0.063102558,0.001004704,0.32978707,-0.056021548,0.007513222
-0.052974902,-0.323841572,-0.944627106,0.00167511,0.012197644,0.012360573,0.005631823,-0.063102558,0.001004704,0.32978707,-0.056021548,0.007513222
-0.052974902,-0.323841572,-0.944627106,0.00167511,0.012197644,0.012360573,0.005631823,-0.063102558,0.001004704,0.32978707,-0.056021548,0.007513222
-0.052974902,-0.323841572,-0.944627106,0.00167511,0.012197644,0.012360573,0.005631823,-0.063102558,0.001004704,0.32978707,-0.056021548,0.007513222
-0.052974902,-0.323841572,-0.944627106,0.00167511,0.012197644,0.012360573,0.005631823,-0.063102558,0.001004704,0.32978707,-0.056021548,0.007513222
-0.052974902,-0.323841572,-0.944627106,0.00167511,0.012197644,0.012360573,0.005631823,-0.063102558,0.001004704,0.32978707,-0.056021548,0.007513222
-0.052974902,-0.323841572,-0.944627106,0.00167511,0.012197644,0.012360573,0.005631823,-0.063102558,0.001004704,0.32978707,-0.056021548,0.007513222
-0.054068424,-0.324042678,-0.944496155,-0.001519054,-0.000769466,0.010474861,-0.019751232,-0.06113128,0.026957206,0.329999616,-0.057183376,0.007617895
-0.054068424,-0.324042678,-0.944496155,-0.001519054,-0.000769466,0.010474861,-0.019751232,-0.06113128,0.026957206,0.329999616,-0.057183376,0.007617895
-0.054068424,-0.324042678,-0.944496155,-0.001519054,-0.000769466,0.010474861,-0.019751232,-0.06113128,0.026957206,0.329999616,-0.057183376,0.007617895
-0.054068424,-0.324042678,-0.944496155,-0.001519054,-0.000769466,0.010474861,-0.019751232,-0.06113128,0.026957206,0.329999616,-0.057183376,0.007617895
-0.054068424,-0.324042678,-0.944496155,-0.001519054,-0.000769466,0.010474861,-0.019751232,-0.06113128,0.026957206,0.329999616,-0.057183376,0.007617895
-0.054893263,-0.324186325,-0.944399297,0.003639281,0.036605626,0.01054585,0.021475688,-0.069496691,-0.106521808,0.330151475,-0.058059731,0.007950407
-0.054893263,-0.324186325,-0.944399297,0.003639281,0.036605626,0.01054585,0.021475688,-0.069496691,-0.106521808,0.330151475,-0.058059731,0.007950407
-0.054893263,-0.324186325,-0.944399297,0.003639281,0.036605626,0.01054585,0.021475688,-0.069496691,-0.106521808,0.330151475,-0.058059731,0.007950407
-0.055580501,-0.324017912,-0.944416881,-0.017447766,-0.030106336,0.028019488,-0.042762529,-0.059213355,0.046350934,0.329973461,-0.058783857,0.007185726
-0.055580501,-0.324017912,-0.944416881,-0.017447766,-0.030106336,0.028019488,-0.042762529,-0.059213355,0.046350934,0.329973461,-0.058783857,0.007185726
-0.055580501,-0.324017912,-0.944416881,-0.017447766,-0.030106336,0.028019488,-0.042762529,-0.059213355,0.046350934,0.329973461,-0.058783857,0.007185726
-0.055580501,-0.324017912,-0.944416881,-0.017447766,-0.030106336,0.028019488,-0.042762529,-0.059213355,0.046350934,0.329973461,-0.058783857,0.007185726
-0.055580501,-0.324017912,-0.944416881,-0.017447766,-0.030106336,0.028019488,-0.042762529,-0.059213355,0.046350934,0.329973461,-0.058783857,0.007185726
-0.055580501,-0.324017912,-0.944416881,-0.017447766,-0.030106336,0.028019488,-0.042762529,-0.059213355,0.046350934,0.329973461,-0.058783857,0.007185726
-0.055580501,-0.324017912,-0.944416881,-0.017447766,-0.030106336,0.028019488,-0.042762529,-0.059213355,0.046350934,0.329973461,-0.058783857,0.007185726
-0.055580501,-0.324017912,-0.944416881,-0.017447766,-0.030106336,0.028019488,-0.042762529,-0.059213355,0.046350934,0.329973461,-0.058783857,0.007185726
-0.055580501,-0.324017912,-0.944416881,-0.017447766,-0.030106336,0.028019488,-0.042762529,-0.059213355,0.046350934,0.329973461,-0.058783857,0.007185726
-0.056653548,-0.323401123,-0.944564521,0.03486431,0.003242999,0.002868056,-0.018277636,0.080443494,0.277452558,0.329321558,-0.059906716,0.008442858
-0.056653548,-0.323401123,-0.944564521,0.03486431,0.003242999,0.002868056,-0.018277636,0.080443494,0.277452558,0.329321558,-0.059906716,0.008442858
-0.056653548,-0.323401123,-0.944564521,0.03486431,0.003242999,0.002868056,-0.018277636,0.080443494,0.277452558,0.329321558,-0.059906716,0.008442858
-0.056653548,-0.323401123,-0.944564521,0.03486431,0.003242999,0.002868056,-0.018277636,0.080443494,0.277452558,0.329321558,-0.059906716,0.008442858
-0.056653548,-0.323401123,-0.944564521,0.03486431,0.003242999,0.002868056,-0.018277636,0.080443494,0.277452558,0.329321558,-0.059906716,0.008442858
-0.056653548,-0.323401123,-0.944564521,0.03486431,0.003242999,0.002868056,-0.018277636,0.080443494,0.277452558,0.329321558,-0.059906716,0.008442858
-0.056653548,-0.323401123,-0.944564521,0.03486431,0.003242999,0.002868056,-0.018277636,0.080443494,0.277452558,0.329321558,-0.059906716,0.008442858
-0.056653548,-0.323401123,-0.944564521,0.03486431,0.003242999,0.002868056,-0.018277636,0.080443494,0.277452558,0.329321558,-0.059906716,0.008442858
-0.056653548,-0.323401123,-0.944564521,0.03486431,0.003242999,0.002868056,-0.018277636,0.080443494,0.277452558,0.329321558,-0.059906716,0.008442858
-0.057203073,-0.323061079,-0.944647729,0.01548586,0.059238404,0.003409028,0.010340452,-0.004045294,0.074998878,0.328962237,-0.060481072,0.01272499
-0.057203073,-0.323061079,-0.944647729,0.01548586,0.059238404,0.003409028,0.010340452,-0.004045294,0.074998878,0.328962237,-0.060481072,0.01272499
-0.057203073,-0.323061079,-0.944647729,0.01548586,0.059238404,0.003409028,0.010340452,-0.004045294,0.074998878,0.328962237,-0.060481072,0.01272499
-0.057203073,-0.323061079,-0.944647729,0.01548586,0.059238404,0.003409028,0.010340452,-0.004045294,0.074998878,0.328962237,-0.060481072,0.01272499
-0.057203073,-0.323061079,-0.944647729,0.01548586,0.059238404,0.003409028,0.010340452,-0.004045294,0.074998878,0.328962237,-0.060481072,0.01272499
-0.057203073,-0.323061079,-0.944647729,0.01548586,0.059238404,0.003409028,0.010340452,-0.004045294,0.074998878,0.328962237,-0.060481072,0.01272499
-0.05709751,-0.323237509,-0.944593787,-0.02549798,-0.01715368,0.024000168,0.0353694,0.037925374,0.038193565,0.329148657,-0.06037317,0.014266069
-0.05709751,-0.323237509,-0.944593787,-0.02549798,-0.01715368,0.024000168,0.0353694,0.037925374,0.038193565,0.329148657,-0.06037317,0.014266069
-0.05709751,-0.323237509,-0.944593787,-0.02549798,-0.01715368,0.024000168,0.0353694,0.037925374,0.038193565,0.329148657,-0.06037317,0.014266069
-0.05709751,-0.323237509,-0.944593787,-0.02549798,-0.01715368,0.024000168,0.0353694,0.037925374,0.038193565,0.329148657,-0.06037317,0.014266069
-0.05709751,-0.323237509,-0.944593787,-0.02549798,-0.01715368,0.024000168,0.0353694,0.037925374,0.038193565,0.329148657,-0.06037317,0.014266069
-0.05709751,-0.323237509,-0.944593787,-0.02549798,-0.01715368,0.024000168,0.0353694,0.037925374,0.038193565,0.329148657,-0.06037317,0.014266069
-0.056848999,-0.324441731,-0.944195807,-0.000661049,0.016689092,0.010235548,0.044963744,0.003695996,-0.041876078,0.330421485,-0.06013631,0.014463392
-0.056848999,-0.324441731,-0.944195807,-0.000661049,0.016689092,0.010235548,0.044963744,0.003695996,-0.041876078,0.330421485,-0.06013631,0.014463392
-0.056848999,-0.324441731,-0.944195807,-0.000661049,0.016689092,0.010235548,0.044963744,0.003695996,-0.041876078,0.330421485,-0.06013631,0.014463392
-0.056848999,-0.324441731,-0.944195807,-0.000661049,0.016689092,0.010235548,0.044963744,0.003695996,-0.041876078,0.330421485,-0.06013631,0.014463392
-0.056848999,-0.324441731,-0.944195807,-0.000661049,0.016689092,0.010235548,0.044963744,0.003695996,-0.041876078,0.330421485,-0.06013631,0.014463392
-0.056848999,-0.324441731,-0.944195807,-0.000661049,0.016689092,0.010235548,0.044963744,0.003695996,-0.041876078,0.330421485,-0.06013631,0.014463392
-0.056194417,-0.32488516,-0.944082558,0.006832562,-0.011431932,0.012609422,-0.035547972,-0.034168091,-0.055944331,0.330890293,-0.059452634,0.013301399
-0.056194417,-0.32488516,-0.944082558,0.006832562,-0.011431932,0.012609422,-0.035547972,-0.034168091,-0.055944331,0.330890293,-0.059452634,0.013301399
-0.056194417,-0.32488516,-0.944082558,0.006832562,-0.011431932,0.012609422,-0.035547972,-0.034168091,-0.055944331,0.330890293,-0.059452634,0.013301399
-0.056194417,-0.32488516,-0.944082558,0.006832562,-0.011431932,0.012609422,-0.035547972,-0.034168091,-0.055944331,0.330890293,-0.059452634,0.013301399
-0.056194417,-0.32488516,-0.944082558,0.006832562,-0.011431932,0.012609422,-0.035547972,-0.034168091,-0.055944331,0.330890293,-0.059452634,0.013301399
-0.056194417,-0.32488516,-0.944082558,0.006832562,-0.011431932,0.012609422,-0.035547972,-0.034168091,-0.055944331,0.330890293,-0.059452634,0.013301399
-0.056194417,-0.32488516,-0.944082558,0.006832562,-0.011431932,0.012609422,-0.035547972,-0.034168091,-0.055944331,0.330890293,-0.059452634,0.013301399
-0.056194417,-0.32488516,-0.944082558,0.006832562,-0.011431932,0.012609422,-0.035547972,-0.034168091,-0.055944331,0.330890293,-0.059452634,0.013301399
-0.056960728,-0.323276937,-0.944588542,0.013961792,-0.035989344,0.022301257,-0.138051748,-0.040575087,-0.006177202,0.32919034,-0.060229226,0.012642943
-0.056960728,-0.323276937,-0.944588542,0.013961792,-0.035989344,0.022301257,-0.138051748,-0.040575087,-0.006177202,0.32919034,-0.060229226,0.012642943
-0.056960728,-0.323276937,-0.944588542,0.013961792,-0.035989344,0.022301257,-0.138051748,-0.040575087,-0.006177202,0.32919034,-0.060229226,0.012642943
-0.056960728,-0.323276937,-0.944588542,0.013961792,-0.035989344,0.022301257,-0.138051748,-0.040575087,-0.006177202,0.32919034,-0.060229226,0.012642943
-0.0581492,-0.320161968,-0.945576549,-0.000322141,-0.020213991,0.018131793,-0.174139947,-0.023746742,0.028859986,0.325900455,-0.061418682,0.012839374
-0.0581492,-0.320161968,-0.945576549,-0.000322141,-0.020213991,0.018131793,-0.174139947,-0.023746742,0.028859986,0.325900455,-0.061418682,0.012839374
-0.0581492,-0.320161968,-0.945576549,-0.000322141,-0.020213991,0.018131793,-0.174139947,-0.023746742,0.028859986,0.325900455,-0.061418682,0.012839374
-0.0581492,-0.320161968,-0.945576549,-0.000322141,-0.020213991,0.018131793,-0.174139947,-0.023746742,0.028859986,0.325900455,-0.061418682,0.012839374
-0.0581492,-0.320161968,-0.945576549,-0.000322141,-0.020213991,0.018131793,-0.174139947,-0.023746742,0.028859986,0.325900455,-0.061418682,0.012839374
-0.0581492,-0.320161968,-0.945576549,-0.000322141,-0.020213991,0.018131793,-0.174139947,-0.023746742,0.028859986,0.325900455,-0.061418682,0.012839374
-0.0581492,-0.320161968,-0.945576549,-0.000322141,-0.020213991,0.018131793,-0.174139947,-0.023746742,0.028859986,0.325900455,-0.061418682,0.012839374
-0.0581492,-0.320161968,-0.945576549,-0.000322141,-0.020213991,0.018131793,-0.174139947,-0.023746742,0.028859986,0.325900455,-0.061418682,0.012839374
-0.0581492,-0.320161968,-0.945576549,-0.000322141,-0.020213991,0.018131793,-0.174139947,-0.023746742,0.028859986,0.325900455,-0.061418682,0.012839374
-0.058513422,-0.317383677,-0.946490228,-0.013202529,0.015002161,0.015001893,-0.107596748,0.01660683,0.032845408,0.322969247,-0.061742895,0.013323208
-0.058513422,-0.317383677,-0.946490228,-0.013202529,0.015002161,0.015001893,-0.107596748,0.01660683,0.032845408,0.322969247,-0.061742895,0.013323208
-0.058513422,-0.317383677,-0.946490228,-0.013202529,0.015002161,0.015001893,-0.107596748,0.01660683,0.032845408,0.322969247,-0.061742895,0.013323208
-0.058513422,-0.317383677,-0.946490228,-0.013202529,0.015002161,0.015001893,-0.107596748,0.01660683,0.032845408,0.322969247,-0.061742895,0.013323208
-0.058513422,-0.317383677,-0.946490228,-0.013202529,0.015002161,0.015001893,-0.107596748,0.01660683,0.032845408,0.322969247,-0.061742895,0.013323208
-0.058513422,-0.317383677,-0.946490228,-0.013202529,0.015002161,0.015001893,-0.107596748,0.01660683,0.032845408,0.322969247,-0.061742895,0.013323208
-0.058513422,-0.317383677,-0.946490228,-0.013202529,0.015002161,0.015001893,-0.107596748,0.01660683,0.032845408,0.322969247,-0.061742895,0.013323208
-0.058513422,-0.317383677,-0.946490228,-0.013202529,0.015002161,0.015001893,-0.107596748,0.01660683,0.032845408,0.322969247,-0.061742895,0.013323208
-0.057992861,-0.316548467,-0.94680196,-0.010900222,0.038687825,0.009896696,-0.000953215,0.029229622,-0.027449735,0.322088625,-0.061174884,0.013264287
-0.057992861,-0.316548467,-0.94680196,-0.010900222,0.038687825,0.009896696,-0.000953215,0.029229622,-0.027449735,0.322088625,-0.061174884,0.013264287
-0.057992861,-0.316548467,-0.94680196,-0.010900222,0.038687825,0.009896696,-0.000953215,0.029229622,-0.027449735,0.322088625,-0.061174884,0.013264287
-0.056900922,-0.318150222,-0.946331203,-0.006376918,0.028967679,0.009639561,0.060792297,0.019946218,-0.058412496,0.323777696,-0.060055612,0.012182331
-0.056900922,-0.318150222,-0.946331203,-0.006376918,0.028967679,0.009639561,0.060792297,0.019946218,-0.058412496,0.323777696,-0.060055612,0.012182331
-0.056900922,-0.318150222,-0.946331203,-0.006376918,0.028967679,0.009639561,0.060792297,0.019946218,-0.058412496,0.323777696,-0.060055612,0.012182331
-0.056900922,-0.318150222,-0.946331203,-0.006376918,0.028967679,0.009639561,0.060792297,0.019946218,-0.058412496,0.323777696,-0.060055612,0.012182331
-0.056900922,-0.318150222,-0.946331203,-0.006376918,0.028967679,0.009639561,0.060792297,0.019946218,-0.058412496,0.323777696,-0.060055612,0.012182331
-0.056900922,-0.318150222,-0.946331203,-0.006376918,0.028967679,0.009639561,0.060792297,0.019946218,-0.058412496,0.323777696,-0.060055612,0.012182331
-0.056298189,-0.319758952,-0.945824921,0.004205052,-0.005953103,0.013649881,0.030760825,0.015948001,-0.020924244,0.325475065,-0.059452698,0.011400779
-0.056298189,-0.319758952,-0.945824921,0.004205052,-0.005953103,0.013649881,0.030760825,0.015948001,-0.020924244,0.325475065,-0.059452698,0.011400779
-0.056298189,-0.319758952,-0.945824921,0.004205052,-0.005953103,0.013649881,0.030760825,0.015948001,-0.020924244,0.325475065,-0.059452698,0.011400779
-0.056298189,-0.319758952,-0.945824921,0.004205052,-0.005953103,0.013649881,0.030760825,0.015948001,-0.020924244,0.325475065,-0.059452698,0.011400779
-0.056298189,-0.319758952,-0.945824921,0.004205052,-0.005953103,0.013649881,0.030760825,0.015948001,-0.020924244,0.325475065,-0.059452698,0.011400779
-0.056298189,-0.319758952,-0.945824921,0.004205052,-0.005953103,0.013649881,0.030760825,0.015948001,-0.020924244,0.325475065,-0.059452698,0.011400779
-0.056203209,-0.319878191,-0.945790231,0.005925868,-0.013783664,0.016941607,-0.010685844,0.016318956,0.017134352,0.325600919,-0.059354804,0.011551981
-0.056203209,-0.319878191,-0.945790231,0.005925868,-0.013783664,0.016941607,-0.010685844,0.016318956,0.017134352,0.325600919,-0.059354804,0.011551981
-0.056138262,-0.317689449,-0.946531534,-0.007307403,-0.002483606,0.015760303,-0.030072378,0.018276015,-0.033759668,0.323291693,-0.059240051,0.011499361
-0.056138262,-0.317689449,-0.946531534,-0.007307403,-0.002483606,0.015760303,-0.030072378,0.018276015,-0.033759668,0.323291693,-0.059240051,0.011499361
-0.056138262,-0.317689449,-0.946531534,-0.007307403,-0.002483606,0.015760303,-0.030072378,0.018276015,-0.033759668,0.323291693,-0.059240051,0.011499361
-0.056138262,-0.317689449,-0.946531534,-0.007307403,-0.002483606,0.015760303,-0.030072378,0.018276015,-0.033759668,0.323291693,-0.059240051,0.011499361
-0.056138262,-0.317689449,-0.946531534,-0.007307403,-0.002483606,0.015760303,-0.030072378,0.018276015,-0.033759668,0.323291693,-0.059240051,0.011499361
-0.056138262,-0.317689449,-0.946531534,-0.007307403,-0.002483606,0.015760303,-0.030072378,0.018276015,-0.033759668,0.323291693,-0.059240051,0.011499361
-0.055551711,-0.317269862,-0.946706831,0.001474939,0.008922398,0.013097465,-0.027150691,0.017775329,-0.016569495,0.322849229,-0.058611687,0.010893555
-0.055551711,-0.317269862,-0.946706831,0.001474939,0.008922398,0.013097465,-0.027150691,0.017775329,-0.016569495,0.322849229,-0.058611687,0.010893555
-0.055551711,-0.317269862,-0.946706831,0.001474939,0.008922398,0.013097465,-0.027150691,0.017775329,-0.016569495,0.322849229,-0.058611687,0.010893555
-0.055551711,-0.317269862,-0.946706831,0.001474939,0.008922398,0.013097465,-0.027150691,0.017775329,-0.016569495,0.322849229,-0.058611687,0.010893555
-0.055551711,-0.317269862,-0.946706831,0.001474939,0.008922398,0.013097465,-0.027150691,0.017775329,-0.016569495,0.322849229,-0.058611687,0.010893555
-0.055551711,-0.317269862,-0.946706831,0.001474939,0.008922398,0.013097465,-0.027150691,0.017775329,-0.016569495,0.322849229,-0.058611687,0.010893555
-0.055551711,-0.317269862,-0.946706831,0.001474939,0.008922398,0.013097465,-0.027150691,0.017775329,-0.016569495,0.322849229,-0.058611687,0.010893555
-0.055122469,-0.317050427,-0.946805477,0.0032277,0.004888237,0.00816071,-0.051725823,0.014911983,0.001162044,0.322617835,-0.058153781,0.010689902
-0.055122469,-0.317050427,-0.946805477,0.0032277,0.004888237,0.00816071,-0.051725823,0.014911983,0.001162044,0.322617835,-0.058153781,0.010689902
-0.055122469,-0.317050427,-0.946805477,0.0032277,0.004888237,0.00816071,-0.051725823,0.014911983,0.001162044,0.322617835,-0.058153781,0.010689902
-0.055122469,-0.317050427,-0.946805477,0.0032277,0.004888237,0.00816071,-0.051725823,0.014911983,0.001162044,0.322617835,-0.058153781,0.010689902
-0.055122469,-0.317050427,-0.946805477,0.0032277,0.004888237,0.00816071,-0.051725823,0.014911983,0.001162044,0.322617835,-0.058153781,0.010689902
-0.055122469,-0.317050427,-0.946805477,0.0032277,0.004888237,0.00816071,-0.051725823,0.014911983,0.001162044,0.322617835,-0.058153781,0.010689902
-0.054821458,-0.315769553,-0.947250903,0.005734321,-0.017480224,0.015899777,-0.102421425,0.009678351,0.001373232,0.321267587,-0.05780979,0.010645217
-0.054821458,-0.315769553,-0.947250903,0.005734321,-0.017480224,0.015899777,-0.102421425,0.009678351,0.001373232,0.321267587,-0.05780979,0.010645217
-0.054821458,-0.315769553,-0.947250903,0.005734321,-0.017480224,0.015899777,-0.102421425,0.009678351,0.001373232,0.321267587,-0.05780979,0.010645217
-0.054821458,-0.315769553,-0.947250903,0.005734321,-0.017480224,0.015899777,-0.102421425,0.009678351,0.001373232,0.321267587,-0.05780979,0.010645217
-0.054821458,-0.315769553,-0.947250903,0.005734321,-0.017480224,0.015899777,-0.102421425,0.009678351,0.001373232,0.321267587,-0.05780979,0.010645217
-0.054869223,-0.313776314,-0.947910249,0.007521585,-0.012606978,0.018268168,-0.118607678,-0.004347465,-0.009561548,0.319167621,-0.05781989,0.010360903
-0.054869223,-0.313776314,-0.947910249,0.007521585,-0.012606978,0.018268168,-0.118607678,-0.004347465,-0.009561548,0.319167621,-0.05781989,0.010360903
-0.054869223,-0.313776314,-0.947910249,0.007521585,-0.012606978,0.018268168,-0.118607678,-0.004347465,-0.009561548,0.319167621,-0.05781989,0.010360903
-0.055041123,-0.31203863,-0.948473692,0.00564881,0.015089512,0.015245795,-0.066904142,-0.012195958,-0.006586051,0.317338063,-0.057966249,0.010136173
-0.055041123,-0.31203863,-0.948473692,0.00564881,0.015089512,0.015245795,-0.066904142,-0.012195958,-0.006586051,0.317338063,-0.057966249,0.010136173
-0.055041123,-0.31203863,-0.948473692,0.00564881,0.015089512,0.015245795,-0.066904142,-0.012195958,-0.006586051,0.317338063,-0.057966249,0.010136173
-0.055041123,-0.31203863,-0.948473692,0.00564881,0.015089512,0.015245795,-0.066904142,-0.012195958,-0.006586051,0.317338063,-0.057966249,0.010136173
-0.055041123,-0.31203863,-0.948473692,0.00564881,0.015089512,0.015245795,-0.066904142,-0.012195958,-0.006586051,0.317338063,-0.057966249,0.010136173
-0.055231668,-0.31136471,-0.948684096,0.001536373,0.029994816,0.01318264,-0.007064864,-0.013643314,0.002400999,0.31662879,-0.058153596,0.010142151
-0.055231668,-0.31136471,-0.948684096,0.001536373,0.029994816,0.01318264,-0.007064864,-0.013643314,0.002400999,0.31662879,-0.058153596,0.010142151
-0.055231668,-0.31136471,-0.948684096,0.001536373,0.029994816,0.01318264,-0.007064864,-0.013643314,0.002400999,0.31662879,-0.058153596,0.010142151
-0.055231668,-0.31136471,-0.948684096,0.001536373,0.029994816,0.01318264,-0.007064864,-0.013643314,0.002400999,0.31662879,-0.058153596,0.010142151
-0.055231668,-0.31136471,-0.948684096,0.001536373,0.029994816,0.01318264,-0.007064864,-0.013643314,0.002400999,0.31662879,-0.058153596,0.010142151
-0.055231668,-0.31136471,-0.948684096,0.001536373,0.029994816,0.01318264,-0.007064864,-0.013643314,0.002400999,0.31662879,-0.058153596,0.010142151
-0.055317909,-0.312106222,-0.948435366,-0.004862368,0.016972899,0.012872875,0.038594965,-0.003221795,-0.001985494,0.317409184,-0.058259435,0.010195083
-0.055317909,-0.312106222,-0.948435366,-0.004862368,0.016972899,0.012872875,0.038594965,-0.003221795,-0.001985494,0.317409184,-0.058259435,0.010195083
-0.055317909,-0.312106222,-0.948435366,-0.004862368,0.016972899,0.012872875,0.038594965,-0.003221795,-0.001985494,0.317409184,-0.058259435,0.010195083
-0.055317909,-0.312106222,-0.948435366,-0.004862368,0.016972899,0.012872875,0.038594965,-0.003221795,-0.001985494,0.317409184,-0.058259435,0.010195083
-0.055317909,-0.312106222,-0.948435366,-0.004862368,0.016972899,0.012872875,0.038594965,-0.003221795,-0.001985494,0.317409184,-0.058259435,0.010195083
-0.055317909,-0.312106222,-0.948435366,-0.004862368,0.016972899,0.012872875,0.038594965,-0.003221795,-0.001985494,0.317409184,-0.058259435,0.010195083
-0.055268016,-0.313442528,-0.94799751,0.002503511,0.008085847,0.012740195,0.054236487,-0.006885556,-0.008450956,0.318816085,-0.058233833,0.010072359
-0.055268016,-0.313442528,-0.94799751,0.002503511,0.008085847,0.012740195,0.054236487,-0.006885556,-0.008450956,0.318816085,-0.058233833,0.010072359
-0.055268016,-0.313442528,-0.94799751,0.002503511,0.008085847,0.012740195,0.054236487,-0.006885556,-0.008450956,0.318816085,-0.058233833,0.010072359
-0.055268016,-0.313442528,-0.94799751,0.002503511,0.008085847,0.012740195,0.054236487,-0.006885556,-0.008450956,0.318816085,-0.058233833,0.010072359