gravityX,gravityY,gravityZ,accelX,accelY,accelZ,rotRateX,rotRatY,rotRateZ,attPitch,attRoll,attYaw
-0.08157786,-0.269749433,-0.959468782,0.006794579,0.007664591,0.007564425,0.073067181,0.024513466,-0.00682451,0.273132802,-0.084819993,0.011234876
-0.08157786,-0.269749433,-0.959468782,0.006794579,0.007664591,0.007564425,0.073067181,0.024513466,-0.00682451,0.273132802,-0.084819993,0.011234876
-0.080835603,-0.27135855,-0.959077775,0.002771683,0.001095027,0.009981036,0.098269448,0.044609677,-0.006619288,0.274804265,-0.084085989,0.011281054
-0.080835603,-0.27135855,-0.959077775,0.002771683,0.001095027,0.009981036,0.098269448,0.044609677,-0.006619288,0.274804265,-0.084085989,0.011281054
-0.080835603,-0.27135855,-0.959077775,0.002771683,0.001095027,0.009981036,0.098269448,0.044609677,-0.006619288,0.274804265,-0.084085989,0.011281054
-0.080835603,-0.27135855,-0.959077775,0.002771683,0.001095027,0.009981036,0.098269448,0.044609677,-0.006619288,0.274804265,-0.084085989,0.011281054
-0.080835603,-0.27135855,-0.959077775,0.002771683,0.001095027,0.009981036,0.098269448,0.044609677,-0.006619288,0.274804265,-0.084085989,0.011281054
-0.080835603,-0.27135855,-0.959077775,0.002771683,0.001095027,0.009981036,0.098269448,0.044609677,-0.006619288,0.274804265,-0.084085989,0.011281054
-0.080835603,-0.27135855,-0.959077775,0.002771683,0.001095027,0.009981036,0.098269448,0.044609677,-0.006619288,0.274804265,-0.084085989,0.011281054
-0.080835603,-0.27135855,-0.959077775,0.002771683,0.001095027,0.009981036,0.098269448,0.044609677,-0.006619288,0.274804265,-0.084085989,0.011281054
-0.080835603,-0.27135855,-0.959077775,0.002771683,0.001095027,0.009981036,0.098269448,0.044609677,-0.006619288,0.274804265,-0.084085989,0.011281054
-0.080835603,-0.27135855,-0.959077775,0.002771683,0.001095027,0.009981036,0.098269448,0.044609677,-0.006619288,0.274804265,-0.084085989,0.011281054
-0.080835603,-0.27135855,-0.959077775,0.002771683,0.001095027,0.009981036,0.098269448,0.044609677,-0.006619288,0.274804265,-0.084085989,0.011281054
-0.080835603,-0.27135855,-0.959077775,0.002771683,0.001095027,0.009981036,0.098269448,0.044609677,-0.006619288,0.274804265,-0.084085989,0.011281054
-0.080835603,-0.27135855,-0.959077775,0.002771683,0.001095027,0.009981036,0.098269448,0.044609677,-0.006619288,0.274804265,-0.084085989,0.011281054
-0.080835603,-0.27135855,-0.959077775,0.002771683,0.001095027,0.009981036,0.098269448,0.044609677,-0.006619288,0.274804265,-0.084085989,0.011281054
-0.080835603,-0.27135855,-0.959077775,0.002771683,0.001095027,0.009981036,0.098269448,0.044609677,-0.006619288,0.274804265,-0.084085989,0.011281054
-0.080098331,-0.273779303,-0.95845145,0.009724841,0.022329837,0.010102391,0.162572831,0.018183978,-0.011073584,0.277320272,-0.083376829,0.011253823
-0.080098331,-0.273779303,-0.95845145,0.009724841,0.022329837,0.010102391,0.162572831,0.018183978,-0.011073584,0.277320272,-0.083376829,0.011253823
-0.080098331,-0.273779303,-0.95845145,0.009724841,0.022329837,0.010102391,0.162572831,0.018183978,-0.011073584,0.277320272,-0.083376829,0.011253823
-0.080098331,-0.273779303,-0.95845145,0.009724841,0.022329837,0.010102391,0.162572831,0.018183978,-0.011073584,0.277320272,-0.083376829,0.011253823
-0.080098331,-0.273779303,-0.95845145,0.009724841,0.022329837,0.010102391,0.162572831,0.018183978,-0.011073584,0.277320272,-0.083376829,0.011253823
-0.080098331,-0.273779303,-0.95845145,0.009724841,0.022329837,0.010102391,0.162572831,0.018183978,-0.011073584,0.277320272,-0.083376829,0.011253823
-0.080098331,-0.273779303,-0.95845145,0.009724841,0.022329837,0.010102391,0.162572831,0.018183978,-0.011073584,0.277320272,-0.083376829,0.011253823
-0.080098331,-0.273779303,-0.95845145,0.009724841,0.022329837,0.010102391,0.162572831,0.018183978,-0.011073584,0.277320272,-0.083376829,0.011253823
-0.080098331,-0.273779303,-0.95845145,0.009724841,0.022329837,0.010102391,0.162572831,0.018183978,-0.011073584,0.277320272,-0.083376829,0.011253823
-0.080098331,-0.273779303,-0.95845145,0.009724841,0.022329837,0.010102391,0.162572831,0.018183978,-0.011073584,0.277320272,-0.083376829,0.011253823
-0.080098331,-0.273779303,-0.95845145,0.009724841,0.022329837,0.010102391,0.162572831,0.018183978,-0.011073584,0.277320272,-0.083376829,0.011253823
-0.080098331,-0.273779303,-0.95845145,0.009724841,0.022329837,0.010102391,0.162572831,0.018183978,-0.011073584,0.277320272,-0.083376829,0.011253823
-0.080015622,-0.277524412,-0.957380652,0.012693882,0.03207165,-0.001344323,0.20793514,-0.017385708,0.006462639,0.281216334,-0.083383853,0.011497688
-0.080015622,-0.277524412,-0.957380652,0.012693882,0.03207165,-0.001344323,0.20793514,-0.017385708,0.006462639,0.281216334,-0.083383853,0.011497688
-0.080015622,-0.277524412,-0.957380652,0.012693882,0.03207165,-0.001344323,0.20793514,-0.017385708,0.006462639,0.281216334,-0.083383853,0.011497688
-0.080015622,-0.277524412,-0.957380652,0.012693882,0.03207165,-0.001344323,0.20793514,-0.017385708,0.006462639,0.281216334,-0.083383853,0.011497688
-0.080015622,-0.277524412,-0.957380652,0.012693882,0.03207165,-0.001344323,0.20793514,-0.017385708,0.006462639,0.281216334,-0.083383853,0.011497688
-0.080015622,-0.277524412,-0.957380652,0.012693882,0.03207165,-0.001344323,0.20793514,-0.017385708,0.006462639,0.281216334,-0.083383853,0.011497688
-0.080015622,-0.277524412,-0.957380652,0.012693882,0.03207165,-0.001344323,0.20793514,-0.017385708,0.006462639,0.281216334,-0.083383853,0.011497688
-0.080015622,-0.277524412,-0.957380652,0.012693882,0.03207165,-0.001344323,0.20793514,-0.017385708,0.006462639,0.281216334,-0.083383853,0.011497688
-0.080015622,-0.277524412,-0.957380652,0.012693882,0.03207165,-0.001344323,0.20793514,-0.017385708,0.006462639,0.281216334,-0.083383853,0.011497688
-0.080603302,-0.281483322,-0.956174791,0.006674521,-2.59E-05,-0.002763808,0.193878606,-0.032903343,0.028969388,0.285339591,-0.084098834,0.012331887
-0.080603302,-0.281483322,-0.956174791,0.006674521,-2.59E-05,-0.002763808,0.193878606,-0.032903343,0.028969388,0.285339591,-0.084098834,0.012331887
-0.080603302,-0.281483322,-0.956174791,0.006674521,-2.59E-05,-0.002763808,0.193878606,-0.032903343,0.028969388,0.285339591,-0.084098834,0.012331887
-0.080603302,-0.281483322,-0.956174791,0.006674521,-2.59E-05,-0.002763808,0.193878606,-0.032903343,0.028969388,0.285339591,-0.084098834,0.012331887
-0.080603302,-0.281483322,-0.956174791,0.006674521,-2.59E-05,-0.002763808,0.193878606,-0.032903343,0.028969388,0.285339591,-0.084098834,0.012331887
-0.080603302,-0.281483322,-0.956174791,0.006674521,-2.59E-05,-0.002763808,0.193878606,-0.032903343,0.028969388,0.285339591,-0.084098834,0.012331887
-0.076727025,-0.268654406,-0.960175931,-0.005914509,-0.046317279,0.023866057,0.017593184,0.012491061,0.006451295,0.271995807,-0.079739902,0.012404946
-0.076727025,-0.268654406,-0.960175931,-0.005914509,-0.046317279,0.023866057,0.017593184,0.012491061,0.006451295,0.271995807,-0.079739902,0.012404946
-0.076727025,-0.268654406,-0.960175931,-0.005914509,-0.046317279,0.023866057,0.017593184,0.012491061,0.006451295,0.271995807,-0.079739902,0.012404946
-0.073333241,-0.279485673,-0.957345307,-0.003906675,0.049261332,0.013360262,0.343716294,0.023658022,0.011878497,0.283258384,-0.076451324,0.012235669
-0.073333241,-0.279485673,-0.957345307,-0.003906675,0.049261332,0.013360262,0.343716294,0.023658022,0.011878497,0.283258384,-0.076451324,0.012235669
-0.070376709,-0.315377057,-0.946353197,-0.019589067,-0.042380273,0.03489995,0.393401116,0.068124264,0.102751039,0.320853959,-0.074229583,0.019094192
-0.070376709,-0.315377057,-0.946353197,-0.019589067,-0.042380273,0.03489995,0.393401116,0.068124264,0.102751039,0.320853959,-0.074229583,0.019094192
-0.070376709,-0.315377057,-0.946353197,-0.019589067,-0.042380273,0.03489995,0.393401116,0.068124264,0.102751039,0.320853959,-0.074229583,0.019094192
-0.067583531,-0.371367127,-0.926023185,0.016314119,-0.025696367,0.021207333,0.183596522,-0.014637677,0.03624722,0.38048101,-0.072853379,0.033661241
-0.067583531,-0.371367127,-0.926023185,0.016314119,-0.025696367,0.021207333,0.183596522,-0.014637677,0.03624722,0.38048101,-0.072853379,0.033661241
-0.067583531,-0.371367127,-0.926023185,0.016314119,-0.025696367,0.021207333,0.183596522,-0.014637677,0.03624722,0.38048101,-0.072853379,0.033661241
-0.067583531,-0.371367127,-0.926023185,0.016314119,-0.025696367,0.021207333,0.183596522,-0.014637677,0.03624722,0.38048101,-0.072853379,0.033661241
-0.067583531,-0.371367127,-0.926023185,0.016314119,-0.025696367,0.021207333,0.183596522,-0.014637677,0.03624722,0.38048101,-0.072853379,0.033661241
-0.067583531,-0.371367127,-0.926023185,0.016314119,-0.025696367,0.021207333,0.183596522,-0.014637677,0.03624722,0.38048101,-0.072853379,0.033661241
-0.067583531,-0.371367127,-0.926023185,0.016314119,-0.025696367,0.021207333,0.183596522,-0.014637677,0.03624722,0.38048101,-0.072853379,0.033661241
-0.067583531,-0.371367127,-0.926023185,0.016314119,-0.025696367,0.021207333,0.183596522,-0.014637677,0.03624722,0.38048101,-0.072853379,0.033661241
-0.067583531,-0.371367127,-0.926023185,0.016314119,-0.025696367,0.021207333,0.183596522,-0.014637677,0.03624722,0.38048101,-0.072853379,0.033661241
-0.067859843,-0.375717044,-0.92424655,0.004764885,-0.023986191,0.009497285,0.126479521,-0.007794758,0.022906702,0.3851704,-0.073290293,0.034440674
-0.067859843,-0.375717044,-0.92424655,0.004764885,-0.023986191,0.009497285,0.126479521,-0.007794758,0.022906702,0.3851704,-0.073290293,0.034440674
-0.067859843,-0.375717044,-0.92424655,0.004764885,-0.023986191,0.009497285,0.126479521,-0.007794758,0.022906702,0.3851704,-0.073290293,0.034440674
-0.067859843,-0.375717044,-0.92424655,0.004764885,-0.023986191,0.009497285,0.126479521,-0.007794758,0.022906702,0.3851704,-0.073290293,0.034440674
-0.067011155,-0.377341151,-0.923646629,-0.006749704,-0.030266136,0.010285914,0.073959932,0.036708675,0.011085514,0.38692351,-0.072423746,0.034721259
-0.067011155,-0.377341151,-0.923646629,-0.006749704,-0.030266136,0.010285914,0.073959932,0.036708675,0.011085514,0.38692351,-0.072423746,0.034721259
-0.067011155,-0.377341151,-0.923646629,-0.006749704,-0.030266136,0.010285914,0.073959932,0.036708675,0.011085514,0.38692351,-0.072423746,0.034721259
-0.067011155,-0.377341151,-0.923646629,-0.006749704,-0.030266136,0.010285914,0.073959932,0.036708675,0.011085514,0.38692351,-0.072423746,0.034721259
-0.067011155,-0.377341151,-0.923646629,-0.006749704,-0.030266136,0.010285914,0.073959932,0.036708675,0.011085514,0.38692351,-0.072423746,0.034721259
-0.066499949,-0.376993984,-0.923825383,0.005495414,-0.022968709,0.024990976,0.010307722,0.028796734,0.000709838,0.386548663,-0.071859301,0.035043106
-0.066499949,-0.376993984,-0.923825383,0.005495414,-0.022968709,0.024990976,0.010307722,0.028796734,0.000709838,0.386548663,-0.071859301,0.035043106
-0.066015638,-0.377329201,-0.923723221,0.016211063,-0.01360029,0.009004474,0.000354756,-0.01303868,0.001326627,0.386910616,-0.071345601,0.034916021
-0.066015638,-0.377329201,-0.923723221,0.016211063,-0.01360029,0.009004474,0.000354756,-0.01303868,0.001326627,0.386910616,-0.071345601,0.034916021
-0.066015638,-0.377329201,-0.923723221,0.016211063,-0.01360029,0.009004474,0.000354756,-0.01303868,0.001326627,0.386910616,-0.071345601,0.034916021
-0.066015638,-0.377329201,-0.923723221,0.016211063,-0.01360029,0.009004474,0.000354756,-0.01303868,0.001326627,0.386910616,-0.071345601,0.034916021
-0.066015638,-0.377329201,-0.923723221,0.016211063,-0.01360029,0.009004474,0.000354756,-0.01303868,0.001326627,0.386910616,-0.071345601,0.034916021
-0.066015638,-0.377329201,-0.923723221,0.016211063,-0.01360029,0.009004474,0.000354756,-0.01303868,0.001326627,0.386910616,-0.071345601,0.034916021
-0.066015638,-0.377329201,-0.923723221,0.016211063,-0.01360029,0.009004474,0.000354756,-0.01303868,0.001326627,0.386910616,-0.071345601,0.034916021
-0.066282757,-0.378857136,-0.923078477,0.016310349,0.002026856,0.006116629,0.059903141,-0.038024213,0.030938741,0.388561078,-0.071683166,0.035202669
-0.066282757,-0.378857136,-0.923078477,0.016310349,0.002026856,0.006116629,0.059903141,-0.038024213,0.030938741,0.388561078,-0.071683166,0.035202669
-0.066282757,-0.378857136,-0.923078477,0.016310349,0.002026856,0.006116629,0.059903141,-0.038024213,0.030938741,0.388561078,-0.071683166,0.035202669
-0.067951791,-0.381128877,-0.922021329,0.01317285,0.008387834,0.003793061,0.106061094,-0.063914172,0.057792887,0.391017013,-0.07356572,0.036458852
-0.067951791,-0.381128877,-0.922021329,0.01317285,0.008387834,0.003793061,0.106061094,-0.063914172,0.057792887,0.391017013,-0.07356572,0.036458852
-0.067951791,-0.381128877,-0.922021329,0.01317285,0.008387834,0.003793061,0.106061094,-0.063914172,0.057792887,0.391017013,-0.07356572,0.036458852
-0.067951791,-0.381128877,-0.922021329,0.01317285,0.008387834,0.003793061,0.106061094,-0.063914172,0.057792887,0.391017013,-0.07356572,0.036458852
-0.067951791,-0.381128877,-0.922021329,0.01317285,0.008387834,0.003793061,0.106061094,-0.063914172,0.057792887,0.391017013,-0.07356572,0.036458852
-0.069212385,-0.383896381,-0.920778573,0.001082018,-0.014494568,0.01078999,0.101818927,-0.030996036,0.057870857,0.394012322,-0.07502615,0.03773265
-0.069212385,-0.383896381,-0.920778573,0.001082018,-0.014494568,0.01078999,0.101818927,-0.030996036,0.057870857,0.394012322,-0.07502615,0.03773265
-0.069212385,-0.383896381,-0.920778573,0.001082018,-0.014494568,0.01078999,0.101818927,-0.030996036,0.057870857,0.394012322,-0.07502615,0.03773265
-0.069212385,-0.383896381,-0.920778573,0.001082018,-0.014494568,0.01078999,0.101818927,-0.030996036,0.057870857,0.394012322,-0.07502615,0.03773265
-0.069212385,-0.383896381,-0.920778573,0.001082018,-0.014494568,0.01078999,0.101818927,-0.030996036,0.057870857,0.394012322,-0.07502615,0.03773265
-0.069537818,-0.386098087,-0.919833004,-0.003231212,-0.011316299,0.011965394,0.116406403,0.000266412,0.094064072,0.396397919,-0.075454786,0.0390107
-0.069537818,-0.386098087,-0.919833004,-0.003231212,-0.011316299,0.011965394,0.116406403,0.000266412,0.094064072,0.396397919,-0.075454786,0.0390107
-0.071739502,-0.384726852,-0.920238376,-0.009055614,-0.022681832,0.014415443,-0.082167745,-0.031617895,0.005731229,0.394911893,-0.077800168,0.039042246
-0.071739502,-0.384726852,-0.920238376,-0.009055614,-0.022681832,0.014415443,-0.082167745,-0.031617895,0.005731229,0.394911893,-0.077800168,0.039042246
-0.071739502,-0.384726852,-0.920238376,-0.009055614,-0.022681832,0.014415443,-0.082167745,-0.031617895,0.005731229,0.394911893,-0.077800168,0.039042246
-0.071739502,-0.384726852,-0.920238376,-0.009055614,-0.022681832,0.014415443,-0.082167745,-0.031617895,0.005731229,0.394911893,-0.077800168,0.039042246
-0.071739502,-0.384726852,-0.920238376,-0.009055614,-0.022681832,0.014415443,-0.082167745,-0.031617895,0.005731229,0.394911893,-0.077800168,0.039042246
-0.071856514,-0.384186089,-0.920455158,-0.015301496,0.019318968,0.016814172,-0.038774818,0.008209799,-0.023369983,0.394326108,-0.077908278,0.038823014
-0.071856514,-0.384186089,-0.920455158,-0.015301496,0.019318968,0.016814172,-0.038774818,0.008209799,-0.023369983,0.394326108,-0.077908278,0.038823014
-0.071856514,-0.384186089,-0.920455158,-0.015301496,0.019318968,0.016814172,-0.038774818,0.008209799,-0.023369983,0.394326108,-0.077908278,0.038823014
-0.071856514,-0.384186089,-0.920455158,-0.015301496,0.019318968,0.016814172,-0.038774818,0.008209799,-0.023369983,0.394326108,-0.077908278,0.038823014
-0.071856514,-0.384186089,-0.920455158,-0.015301496,0.019318968,0.016814172,-0.038774818,0.008209799,-0.023369983,0.394326108,-0.077908278,0.038823014
-0.071602866,-0.38485834,-0.92019403,0.00321316,-0.000257164,0.018201053,0.044025283,0.009853285,-0.010071649,0.395054351,-0.077656311,0.038496963
-0.071602866,-0.38485834,-0.92019403,0.00321316,-0.000257164,0.018201053,0.044025283,0.009853285,-0.010071649,0.395054351,-0.077656311,0.038496963
-0.071602866,-0.38485834,-0.92019403,0.00321316,-0.000257164,0.018201053,0.044025283,0.009853285,-0.010071649,0.395054351,-0.077656311,0.038496963
-0.071602866,-0.38485834,-0.92019403,0.00321316,-0.000257164,0.018201053,0.044025283,0.009853285,-0.010071649,0.395054351,-0.077656311,0.038496963
-0.071393989,-0.388191104,-0.918809295,-0.002153188,0.032738656,0.00053519,0.151493251,-0.010507454,-0.009134855,0.39866795,-0.07754691,0.038430258
-0.071393989,-0.388191104,-0.918809295,-0.002153188,0.032738656,0.00053519,0.151493251,-0.010507454,-0.009134855,0.39866795,-0.07754691,0.038430258
-0.071393989,-0.388191104,-0.918809295,-0.002153188,0.032738656,0.00053519,0.151493251,-0.010507454,-0.009134855,0.39866795,-0.07754691,0.038430258
-0.071393989,-0.388191104,-0.918809295,-0.002153188,0.032738656,0.00053519,0.151493251,-0.010507454,-0.009134855,0.39866795,-0.07754691,0.038430258
-0.071393989,-0.388191104,-0.918809295,-0.002153188,0.032738656,0.00053519,0.151493251,-0.010507454,-0.009134855,0.39866795,-0.07754691,0.038430258
-0.071393989,-0.388191104,-0.918809295,-0.002153188,0.032738656,0.00053519,0.151493251,-0.010507454,-0.009134855,0.39866795,-0.07754691,0.038430258
-0.076317884,-0.40474844,-0.911237776,-0.001852624,-0.014836282,0.011869192,0.059605908,0.007000519,-0.002706145,0.416703703,-0.083556884,0.043424766
-0.076317884,-0.40474844,-0.911237776,-0.001852624,-0.014836282,0.011869192,0.059605908,0.007000519,-0.002706145,0.416703703,-0.083556884,0.043424766
-0.076317884,-0.40474844,-0.911237776,-0.001852624,-0.014836282,0.011869192,0.059605908,0.007000519,-0.002706145,0.416703703,-0.083556884,0.043424766
-0.076518707,-0.405085385,-0.911071181,0.008830994,-0.028461128,0.012602866,-0.069340929,-0.011032241,-0.010415624,0.417072207,-0.08379098,0.043105658
-0.076668896,-0.403242528,-0.911875725,0.01062914,-0.024810731,0.013178468,-0.121243685,-0.021562537,0.009696782,0.415057491,-0.083880944,0.042893782
-0.076668896,-0.403242528,-0.911875725,0.01062914,-0.024810731,0.013178468,-0.121243685,-0.021562537,0.009696782,0.415057491,-0.083880944,0.042893782
-0.076668896,-0.403242528,-0.911875725,0.01062914,-0.024810731,0.013178468,-0.121243685,-0.021562537,0.009696782,0.415057491,-0.083880944,0.042893782
-0.076668896,-0.403242528,-0.911875725,0.01062914,-0.024810731,0.013178468,-0.121243685,-0.021562537,0.009696782,0.415057491,-0.083880944,0.042893782
-0.076668896,-0.403242528,-0.911875725,0.01062914,-0.024810731,0.013178468,-0.121243685,-0.021562537,0.009696782,0.415057491,-0.083880944,0.042893782
-0.077493347,-0.400945097,-0.912818611,0.010644883,-0.016594887,0.011863053,-0.15490675,-0.034724087,0.030129459,0.412548251,-0.084691501,0.043126526
-0.077493347,-0.400945097,-0.912818611,0.010644883,-0.016594887,0.011863053,-0.15490675,-0.034724087,0.030129459,0.412548251,-0.084691501,0.043126526
-0.077493347,-0.400945097,-0.912818611,0.010644883,-0.016594887,0.011863053,-0.15490675,-0.034724087,0.030129459,0.412548251,-0.084691501,0.043126526
-0.079369418,-0.39711532,-0.914330304,0.00409817,-0.002235889,0.009071708,-0.028943423,-0.003781605,0.024977043,0.408371551,-0.086589011,0.044711329
-0.079369418,-0.39711532,-0.914330304,0.00409817,-0.002235889,0.009071708,-0.028943423,-0.003781605,0.024977043,0.408371551,-0.086589011,0.044711329
-0.079369418,-0.39711532,-0.914330304,0.00409817,-0.002235889,0.009071708,-0.028943423,-0.003781605,0.024977043,0.408371551,-0.086589011,0.044711329
-0.079650886,-0.396241605,-0.914684832,-0.006713502,-0.019512802,0.016994596,-0.074171752,-0.004266857,0.026978407,0.407419748,-0.08686103,0.045254994
-0.079650886,-0.396241605,-0.914684832,-0.006713502,-0.019512802,0.016994596,-0.074171752,-0.004266857,0.026978407,0.407419748,-0.08686103,0.045254994
-0.079650886,-0.396241605,-0.914684832,-0.006713502,-0.019512802,0.016994596,-0.074171752,-0.004266857,0.026978407,0.407419748,-0.08686103,0.045254994
-0.079650886,-0.396241605,-0.914684832,-0.006713502,-0.019512802,0.016994596,-0.074171752,-0.004266857,0.026978407,0.407419748,-0.08686103,0.045254994
-0.079650886,-0.396241605,-0.914684832,-0.006713502,-0.019512802,0.016994596,-0.074171752,-0.004266857,0.026978407,0.407419748,-0.08686103,0.045254994
-0.079707988,-0.394326866,-0.915506959,-0.019855253,-0.022190481,0.020593822,-0.117449217,-0.002702734,0.003291081,0.405335244,-0.086845321,0.045204328
-0.079886883,-0.392512798,-0.916270614,-0.016334698,0.00953418,0.017710686,-0.114680968,-0.021594375,-0.009344979,0.403362074,-0.086967083,0.044954071
-0.079886883,-0.392512798,-0.916270614,-0.016334698,0.00953418,0.017710686,-0.114680968,-0.021594375,-0.009344979,0.403362074,-0.086967083,0.044954071
-0.079886883,-0.392512798,-0.916270614,-0.016334698,0.00953418,0.017710686,-0.114680968,-0.021594375,-0.009344979,0.403362074,-0.086967083,0.044954071
-0.079886883,-0.392512798,-0.916270614,-0.016334698,0.00953418,0.017710686,-0.114680968,-0.021594375,-0.009344979,0.403362074,-0.086967083,0.044954071
-0.079886883,-0.392512798,-0.916270614,-0.016334698,0.00953418,0.017710686,-0.114680968,-0.021594375,-0.009344979,0.403362074,-0.086967083,0.044954071
-0.080090962,-0.390852541,-0.916962266,-0.006776966,0.014999837,0.008728206,-0.012393356,0.000118752,-0.028135497,0.40155763,-0.087122691,0.043947997
-0.080090962,-0.390852541,-0.916962266,-0.006776966,0.014999837,0.008728206,-0.012393356,0.000118752,-0.028135497,0.40155763,-0.087122691,0.043947997
-0.080090962,-0.390852541,-0.916962266,-0.006776966,0.014999837,0.008728206,-0.012393356,0.000118752,-0.028135497,0.40155763,-0.087122691,0.043947997
-0.080090962,-0.390852541,-0.916962266,-0.006776966,0.014999837,0.008728206,-0.012393356,0.000118752,-0.028135497,0.40155763,-0.087122691,0.043947997
-0.080090962,-0.390852541,-0.916962266,-0.006776966,0.014999837,0.008728206,-0.012393356,0.000118752,-0.028135497,0.40155763,-0.087122691,0.043947997
-0.080090962,-0.390852541,-0.916962266,-0.006776966,0.014999837,0.008728206,-0.012393356,0.000118752,-0.028135497,0.40155763,-0.087122691,0.043947997
-0.080090962,-0.390852541,-0.916962266,-0.006776966,0.014999837,0.008728206,-0.012393356,0.000118752,-0.028135497,0.40155763,-0.087122691,0.043947997
-0.080090962,-0.390852541,-0.916962266,-0.006776966,0.014999837,0.008728206,-0.012393356,0.000118752,-0.028135497,0.40155763,-0.087122691,0.043947997
-0.080090962,-0.390852541,-0.916962266,-0.006776966,0.014999837,0.008728206,-0.012393356,0.000118752,-0.028135497,0.40155763,-0.087122691,0.043947997
-0.080090962,-0.390852541,-0.916962266,-0.006776966,0.014999837,0.008728206,-0.012393356,0.000118752,-0.028135497,0.40155763,-0.087122691,0.043947997
-0.080090962,-0.390852541,-0.916962266,-0.006776966,0.014999837,0.008728206,-0.012393356,0.000118752,-0.028135497,0.40155763,-0.087122691,0.043947997
-0.080090962,-0.390852541,-0.916962266,-0.006776966,0.014999837,0.008728206,-0.012393356,0.000118752,-0.028135497,0.40155763,-0.087122691,0.043947997
-0.080261298,-0.39156276,-0.916644275,0.00441023,0.005974978,0.00859338,0.015959509,-0.001548556,-0.020699207,0.402329364,-0.087337178,0.043563428
-0.080261298,-0.39156276,-0.916644275,0.00441023,0.005974978,0.00859338,0.015959509,-0.001548556,-0.020699207,0.402329364,-0.087337178,0.043563428
-0.080261298,-0.39156276,-0.916644275,0.00441023,0.005974978,0.00859338,0.015959509,-0.001548556,-0.020699207,0.402329364,-0.087337178,0.043563428
-0.080771782,-0.392142653,-0.916351497,0.008262374,0.001168489,0.008605719,0.031325374,-0.017990295,-0.017454039,0.402959644,-0.08791775,0.043383634
-0.080771782,-0.392142653,-0.916351497,0.008262374,0.001168489,0.008605719,0.031325374,-0.017990295,-0.017454039,0.402959644,-0.08791775,0.043383634
-0.080771782,-0.392142653,-0.916351497,0.008262374,0.001168489,0.008605719,0.031325374,-0.017990295,-0.017454039,0.402959644,-0.08791775,0.043383634
-0.080771782,-0.392142653,-0.916351497,0.008262374,0.001168489,0.008605719,0.031325374,-0.017990295,-0.017454039,0.402959644,-0.08791775,0.043383634
-0.080771782,-0.392142653,-0.916351497,0.008262374,0.001168489,0.008605719,0.031325374,-0.017990295,-0.017454039,0.402959644,-0.08791775,0.043383634
-0.080771782,-0.392142653,-0.916351497,0.008262374,0.001168489,0.008605719,0.031325374,-0.017990295,-0.017454039,0.402959644,-0.08791775,0.043383634
-0.081324123,-0.392676294,-0.916074097,0.005701929,-0.002722889,0.008419871,0.035276774,-0.022391688,-0.006320427,0.403539835,-0.088542501,0.043244638
-0.081324123,-0.392676294,-0.916074097,0.005701929,-0.002722889,0.008419871,0.035276774,-0.022391688,-0.006320427,0.403539835,-0.088542501,0.043244638
-0.081767417,-0.39285183,-0.915959358,0.001674406,-0.006224722,0.010395586,0.007531909,-0.00384713,-0.013716772,0.403730719,-0.089033698,0.043075415
-0.081767417,-0.39285183,-0.915959358,0.001674406,-0.006224722,0.010395586,0.007531909,-0.00384713,-0.013716772,0.403730719,-0.089033698,0.043075415
-0.081767417,-0.39285183,-0.915959358,0.001674406,-0.006224722,0.010395586,0.007531909,-0.00384713,-0.013716772,0.403730719,-0.089033698,0.043075415
-0.081767417,-0.39285183,-0.915959358,0.001674406,-0.006224722,0.010395586,0.007531909,-0.00384713,-0.013716772,0.403730719,-0.089033698,0.043075415
-0.081767417,-0.39285183,-0.915959358,0.001674406,-0.006224722,0.010395586,0.007531909,-0.00384713,-0.013716772,0.403730719,-0.089033698,0.043075415
-0.081767417,-0.39285183,-0.915959358,0.001674406,-0.006224722,0.010395586,0.007531909,-0.00384713,-0.013716772,0.403730719,-0.089033698,0.043075415
-0.081767417,-0.39285183,-0.915959358,0.001674406,-0.006224722,0.010395586,0.007531909,-0.00384713,-0.013716772,0.403730719,-0.089033698,0.043075415
-0.081316769,-0.39263916,-0.916090667,-0.006222516,-0.011442184,0.015623331,-0.029095637,0.026954047,-0.01883281,0.403499442,-0.088532948,0.042657343
-0.081316769,-0.39263916,-0.916090667,-0.006222516,-0.011442184,0.015623331,-0.029095637,0.026954047,-0.01883281,0.403499442,-0.088532948,0.042657343
-0.081316769,-0.39263916,-0.916090667,-0.006222516,-0.011442184,0.015623331,-0.029095637,0.026954047,-0.01883281,0.403499442,-0.088532948,0.042657343
-0.081316769,-0.39263916,-0.916090667,-0.006222516,-0.011442184,0.015623331,-0.029095637,0.026954047,-0.01883281,0.403499442,-0.088532948,0.042657343
-0.081316769,-0.39263916,-0.916090667,-0.006222516,-0.011442184,0.015623331,-0.029095637,0.026954047,-0.01883281,0.403499442,-0.088532948,0.042657343
-0.080584779,-0.391869634,-0.916484773,0.000934288,-0.016789377,0.014064312,-0.063570239,0.018620931,-0.018353388,0.402662894,-0.087702565,0.042125655
-0.080584779,-0.391869634,-0.916484773,0.000934288,-0.016789377,0.014064312,-0.063570239,0.018620931,-0.018353388,0.402662894,-0.087702565,0.042125655
-0.080584779,-0.391869634,-0.916484773,0.000934288,-0.016789377,0.014064312,-0.063570239,0.018620931,-0.018353388,0.402662894,-0.087702565,0.042125655
-0.080584779,-0.391869634,-0.916484773,0.000934288,-0.016789377,0.014064312,-0.063570239,0.018620931,-0.018353388,0.402662894,-0.087702565,0.042125655
-0.079994872,-0.39046371,-0.917136252,-0.000265956,-0.015906394,0.010779023,-0.10432256,0.022774387,-0.017839771,0.401135225,-0.087002266,0.041499395
-0.079994872,-0.39046371,-0.917136252,-0.000265956,-0.015906394,0.010779023,-0.10432256,0.022774387,-0.017839771,0.401135225,-0.087002266,0.041499395
-0.079994872,-0.39046371,-0.917136252,-0.000265956,-0.015906394,0.010779023,-0.10432256,0.022774387,-0.017839771,0.401135225,-0.087002266,0.041499395
-0.079994872,-0.39046371,-0.917136252,-0.000265956,-0.015906394,0.010779023,-0.10432256,0.022774387,-0.017839771,0.401135225,-0.087002266,0.041499395
-0.079994872,-0.39046371,-0.917136252,-0.000265956,-0.015906394,0.010779023,-0.10432256,0.022774387,-0.017839771,0.401135225,-0.087002266,0.041499395
-0.079420514,-0.386176944,-0.918999314,0.009810314,-0.009038985,0.010139644,-0.155297235,-0.000196602,0.01337072,0.396483407,-0.086206456,0.040948039
-0.079420514,-0.386176944,-0.918999314,0.009810314,-0.009038985,0.010139644,-0.155297235,-0.000196602,0.01337072,0.396483407,-0.086206456,0.040948039
-0.079420514,-0.386176944,-0.918999314,0.009810314,-0.009038985,0.010139644,-0.155297235,-0.000196602,0.01337072,0.396483407,-0.086206456,0.040948039
-0.079420514,-0.386176944,-0.918999314,0.009810314,-0.009038985,0.010139644,-0.155297235,-0.000196602,0.01337072,0.396483407,-0.086206456,0.040948039
-0.079420514,-0.386176944,-0.918999314,0.009810314,-0.009038985,0.010139644,-0.155297235,-0.000196602,0.01337072,0.396483407,-0.086206456,0.040948039
-0.079420514,-0.386176944,-0.918999314,0.009810314,-0.009038985,0.010139644,-0.155297235,-0.000196602,0.01337072,0.396483407,-0.086206456,0.040948039
-0.079798877,-0.383740485,-0.919986606,0.000697725,-0.006150037,0.012774885,-0.161077499,-0.008847857,0.015609106,0.39384349,-0.086522612,0.041025071
-0.079798877,-0.383740485,-0.919986606,0.000697725,-0.006150037,0.012774885,-0.161077499,-0.008847857,0.015609106,0.39384349,-0.086522612,0.041025071
-0.079798877,-0.383740485,-0.919986606,0.000697725,-0.006150037,0.012774885,-0.161077499,-0.008847857,0.015609106,0.39384349,-0.086522612,0.041025071
-0.08029528,-0.381106943,-0.921037555,0.000522748,-0.006952584,0.009004056,-0.183983266,-0.038832687,0.001627244,0.390993302,-0.086959302,0.040929575
-0.08029528,-0.381106943,-0.921037555,0.000522748,-0.006952584,0.009004056,-0.183983266,-0.038832687,0.001627244,0.390993302,-0.086959302,0.040929575
-0.08029528,-0.381106943,-0.921037555,0.000522748,-0.006952584,0.009004056,-0.183983266,-0.038832687,0.001627244,0.390993302,-0.086959302,0.040929575
-0.08029528,-0.381106943,-0.921037555,0.000522748,-0.006952584,0.009004056,-0.183983266,-0.038832687,0.001627244,0.390993302,-0.086959302,0.040929575
-0.08029528,-0.381106943,-0.921037555,0.000522748,-0.006952584,0.009004056,-0.183983266,-0.038832687,0.001627244,0.390993302,-0.086959302,0.040929575
-0.08029528,-0.381106943,-0.921037555,0.000522748,-0.006952584,0.009004056,-0.183983266,-0.038832687,0.001627244,0.390993302,-0.086959302,0.040929575
-0.08029528,-0.381106943,-0.921037555,0.000522748,-0.006952584,0.009004056,-0.183983266,-0.038832687,0.001627244,0.390993302,-0.086959302,0.040929575
-0.080824099,-0.37793377,-0.922297955,-0.004884079,-0.015542507,0.014247,-0.211444691,-0.012820615,-0.009578645,0.387563524,-0.087410087,0.040413797
-0.080824099,-0.37793377,-0.922297955,-0.004884079,-0.015542507,0.014247,-0.211444691,-0.012820615,-0.009578645,0.387563524,-0.087410087,0.040413797
-0.080824099,-0.37793377,-0.922297955,-0.004884079,-0.015542507,0.014247,-0.211444691,-0.012820615,-0.009578645,0.387563524,-0.087410087,0.040413797
-0.080824099,-0.37793377,-0.922297955,-0.004884079,-0.015542507,0.014247,-0.211444691,-0.012820615,-0.009578645,0.387563524,-0.087410087,0.040413797
-0.080586441,-0.374545246,-0.923699975,-0.012232311,0.002004087,0.015389621,-0.208109379,0.001969068,-0.014513376,0.383906259,-0.087022745,0.03972765
-0.080586441,-0.374545246,-0.923699975,-0.012232311,0.002004087,0.015389621,-0.208109379,0.001969068,-0.014513376,0.383906259,-0.087022745,0.03972765
-0.080586441,-0.374545246,-0.923699975,-0.012232311,0.002004087,0.015389621,-0.208109379,0.001969068,-0.014513376,0.383906259,-0.087022745,0.03972765
-0.080586441,-0.374545246,-0.923699975,-0.012232311,0.002004087,0.015389621,-0.208109379,0.001969068,-0.014513376,0.383906259,-0.087022745,0.03972765
-0.080586441,-0.374545246,-0.923699975,-0.012232311,0.002004087,0.015389621,-0.208109379,0.001969068,-0.014513376,0.383906259,-0.087022745,0.03972765
-0.08011169,-0.371349275,-0.925030708,-0.007870048,-0.000322253,0.011669755,-0.184729412,0.045514826,-0.016386325,0.380461781,-0.086388803,0.039020401
-0.08011169,-0.371349275,-0.925030708,-0.007870048,-0.000322253,0.011669755,-0.184729412,0.045514826,-0.016386325,0.380461781,-0.086388803,0.039020401
-0.08011169,-0.371349275,-0.925030708,-0.007870048,-0.000322253,0.011669755,-0.184729412,0.045514826,-0.016386325,0.380461781,-0.086388803,0.039020401
-0.08011169,-0.371349275,-0.925030708,-0.007870048,-0.000322253,0.011669755,-0.184729412,0.045514826,-0.016386325,0.380461781,-0.086388803,0.039020401
-0.08011169,-0.371349275,-0.925030708,-0.007870048,-0.000322253,0.011669755,-0.184729412,0.045514826,-0.016386325,0.380461781,-0.086388803,0.039020401
-0.08011169,-0.371349275,-0.925030708,-0.007870048,-0.000322253,0.011669755,-0.184729412,0.045514826,-0.016386325,0.380461781,-0.086388803,0.039020401
-0.08011169,-0.371349275,-0.925030708,-0.007870048,-0.000322253,0.011669755,-0.184729412,0.045514826,-0.016386325,0.380461781,-0.086388803,0.039020401
-0.078826621,-0.368349254,-0.926339686,-0.016937092,0.004749686,0.017739415,-0.188213482,0.080088675,-0.042953968,0.377232791,-0.084890218,0.038104741
-0.078826621,-0.368349254,-0.926339686,-0.016937092,0.004749686,0.017739415,-0.188213482,0.080088675,-0.042953968,0.377232791,-0.084890218,0.038104741
-0.078826621,-0.368349254,-0.926339686,-0.016937092,0.004749686,0.017739415,-0.188213482,0.080088675,-0.042953968,0.377232791,-0.084890218,0.038104741
-0.078826621,-0.368349254,-0.926339686,-0.016937092,0.004749686,0.017739415,-0.188213482,0.080088675,-0.042953968,0.377232791,-0.084890218,0.038104741
-0.078826621,-0.368349254,-0.926339686,-0.016937092,0.004749686,0.017739415,-0.188213482,0.080088675,-0.042953968,0.377232791,-0.084890218,0.038104741
-0.078826621,-0.368349254,-0.926339686,-0.016937092,0.004749686,0.017739415,-0.188213482,0.080088675,-0.042953968,0.377232791,-0.084890218,0.038104741
-0.078826621,-0.368349254,-0.926339686,-0.016937092,0.004749686,0.017739415,-0.188213482,0.080088675,-0.042953968,0.377232791,-0.084890218,0.038104741
-0.078826621,-0.368349254,-0.926339686,-0.016937092,0.004749686,0.017739415,-0.188213482,0.080088675,-0.042953968,0.377232791,-0.084890218,0.038104741
-0.078826621,-0.368349254,-0.926339686,-0.016937092,0.004749686,0.017739415,-0.188213482,0.080088675,-0.042953968,0.377232791,-0.084890218,0.038104741
-0.077083483,-0.365243018,-0.927715302,-0.004367501,-0.012150496,0.011653483,-0.225463361,0.08295247,-0.050880756,0.373893848,-0.082899161,0.036698357
-0.075490445,-0.361084044,-0.929472685,0.002050333,-0.016294152,0.017332375,-0.266902924,0.101449586,-0.015252404,0.369430102,-0.081040687,0.035532209
-0.075490445,-0.361084044,-0.929472685,0.002050333,-0.016294152,0.017332375,-0.266902924,0.101449586,-0.015252404,0.369430102,-0.081040687,0.035532209
-0.075490445,-0.361084044,-0.929472685,0.002050333,-0.016294152,0.017332375,-0.266902924,0.101449586,-0.015252404,0.369430102,-0.081040687,0.035532209
-0.075490445,-0.361084044,-0.929472685,0.002050333,-0.016294152,0.017332375,-0.266902924,0.101449586,-0.015252404,0.369430102,-0.081040687,0.035532209
-0.075490445,-0.361084044,-0.929472685,0.002050333,-0.016294152,0.017332375,-0.266902924,0.101449586,-0.015252404,0.369430102,-0.081040687,0.035532209
-0.075490445,-0.361084044,-0.929472685,0.002050333,-0.016294152,0.017332375,-0.266902924,0.101449586,-0.015252404,0.369430102,-0.081040687,0.035532209
-0.075490445,-0.361084044,-0.929472685,0.002050333,-0.016294152,0.017332375,-0.266902924,0.101449586,-0.015252404,0.369430102,-0.081040687,0.035532209
-0.075490445,-0.361084044,-0.929472685,0.002050333,-0.016294152,0.017332375,-0.266902924,0.101449586,-0.015252404,0.369430102,-0.081040687,0.035532209
-0.075490445,-0.361084044,-0.929472685,0.002050333,-0.016294152,0.017332375,-0.266902924,0.101449586,-0.015252404,0.369430102,-0.081040687,0.035532209
-0.073917955,-0.356490344,-0.931370378,0.002247863,0.007783353,0.00685519,-0.261135191,0.042001419,-0.022927474,0.36450873,-0.079198717,0.035079468
-0.073917955,-0.356490344,-0.931370378,0.002247863,0.007783353,0.00685519,-0.261135191,0.042001419,-0.022927474,0.36450873,-0.079198717,0.035079468
-0.073917955,-0.356490344,-0.931370378,0.002247863,0.007783353,0.00685519,-0.261135191,0.042001419,-0.022927474,0.36450873,-0.079198717,0.035079468
-0.073917955,-0.356490344,-0.931370378,0.002247863,0.007783353,0.00685519,-0.261135191,0.042001419,-0.022927474,0.36450873,-0.079198717,0.035079468
-0.073917955,-0.356490344,-0.931370378,0.002247863,0.007783353,0.00685519,-0.261135191,0.042001419,-0.022927474,0.36450873,-0.079198717,0.035079468
-0.072740495,-0.353059649,-0.932768822,0.001909621,0.012744993,0.008101106,-0.147188887,0.086733378,-0.042742297,0.36083934,-0.077825902,0.034171258
-0.072740495,-0.353059649,-0.932768822,0.001909621,0.012744993,0.008101106,-0.147188887,0.086733378,-0.042742297,0.36083934,-0.077825902,0.034171258
-0.072740495,-0.353059649,-0.932768822,0.001909621,0.012744993,0.008101106,-0.147188887,0.086733378,-0.042742297,0.36083934,-0.077825902,0.034171258
-0.072740495,-0.353059649,-0.932768822,0.001909621,0.012744993,0.008101106,-0.147188887,0.086733378,-0.042742297,0.36083934,-0.077825902,0.034171258
-0.072740495,-0.353059649,-0.932768822,0.001909621,0.012744993,0.008101106,-0.147188887,0.086733378,-0.042742297,0.36083934,-0.077825902,0.034171258
-0.072740495,-0.353059649,-0.932768822,0.001909621,0.012744993,0.008101106,-0.147188887,0.086733378,-0.042742297,0.36083934,-0.077825902,0.034171258
-0.072740495,-0.353059649,-0.932768822,0.001909621,0.012744993,0.008101106,-0.147188887,0.086733378,-0.042742297,0.36083934,-0.077825902,0.034171258
-0.072740495,-0.353059649,-0.932768822,0.001909621,0.012744993,0.008101106,-0.147188887,0.086733378,-0.042742297,0.36083934,-0.077825902,0.034171258
-0.072740495,-0.353059649,-0.932768822,0.001909621,0.012744993,0.008101106,-0.147188887,0.086733378,-0.042742297,0.36083934,-0.077825902,0.034171258
-0.072740495,-0.353059649,-0.932768822,0.001909621,0.012744993,0.008101106,-0.147188887,0.086733378,-0.042742297,0.36083934,-0.077825902,0.034171258
-0.069359027,-0.35261485,-0.933194578,0.013634384,-0.018842757,0.004177988,-0.065441631,0.00539462,0.000121013,0.360363966,-0.074187888,0.031569849
-0.069359027,-0.35261485,-0.933194578,0.013634384,-0.018842757,0.004177988,-0.065441631,0.00539462,0.000121013,0.360363966,-0.074187888,0.031569849
-0.069359027,-0.35261485,-0.933194578,0.013634384,-0.018842757,0.004177988,-0.065441631,0.00539462,0.000121013,0.360363966,-0.074187888,0.031569849
-0.069359027,-0.35261485,-0.933194578,0.013634384,-0.018842757,0.004177988,-0.065441631,0.00539462,0.000121013,0.360363966,-0.074187888,0.031569849
-0.069359027,-0.35261485,-0.933194578,0.013634384,-0.018842757,0.004177988,-0.065441631,0.00539462,0.000121013,0.360363966,-0.074187888,0.031569849
-0.069359027,-0.35261485,-0.933194578,0.013634384,-0.018842757,0.004177988,-0.065441631,0.00539462,0.000121013,0.360363966,-0.074187888,0.031569849
-0.069612354,-0.350242436,-0.934068739,0.018862061,-0.038717061,0.010758936,-0.160443693,-0.024668097,0.044289645,0.357829928,-0.074388426,0.031931646
-0.069612354,-0.350242436,-0.934068739,0.018862061,-0.038717061,0.010758936,-0.160443693,-0.024668097,0.044289645,0.357829928,-0.074388426,0.031931646
-0.069612354,-0.350242436,-0.934068739,0.018862061,-0.038717061,0.010758936,-0.160443693,-0.024668097,0.044289645,0.357829928,-0.074388426,0.031931646
-0.069612354,-0.350242436,-0.934068739,0.018862061,-0.038717061,0.010758936,-0.160443693,-0.024668097,0.044289645,0.357829928,-0.074388426,0.031931646
-0.069612354,-0.350242436,-0.934068739,0.018862061,-0.038717061,0.010758936,-0.160443693,-0.024668097,0.044289645,0.357829928,-0.074388426,0.031931646
-0.070587032,-0.346337318,-0.935450673,0.007873863,-0.000721574,0.011088073,-0.171136349,-0.045131221,0.021548862,0.353663963,-0.075315055,0.032434333
-0.070587032,-0.346337318,-0.935450673,0.007873863,-0.000721574,0.011088073,-0.171136349,-0.045131221,0.021548862,0.353663963,-0.075315055,0.032434333
-0.070587032,-0.346337318,-0.935450673,0.007873863,-0.000721574,0.011088073,-0.171136349,-0.045131221,0.021548862,0.353663963,-0.075315055,0.032434333
-0.070587032,-0.346337318,-0.935450673,0.007873863,-0.000721574,0.011088073,-0.171136349,-0.045131221,0.021548862,0.353663963,-0.075315055,0.032434333
-0.070587032,-0.346337318,-0.935450673,0.007873863,-0.000721574,0.011088073,-0.171136349,-0.045131221,0.021548862,0.353663963,-0.075315055,0.032434333
-0.070587032,-0.346337318,-0.935450673,0.007873863,-0.000721574,0.011088073,-0.171136349,-0.045131221,0.021548862,0.353663963,-0.075315055,0.032434333
-0.071312092,-0.343115866,-0.936582148,0.004845262,0.020760924,0.003567815,-0.111608811,-0.058669705,-0.006073818,0.350232158,-0.075994147,0.032211213
-0.071312092,-0.343115866,-0.936582148,0.004845262,0.020760924,0.003567815,-0.111608811,-0.058669705,-0.006073818,0.350232158,-0.075994147,0.032211213
-0.071312092,-0.343115866,-0.936582148,0.004845262,0.020760924,0.003567815,-0.111608811,-0.058669705,-0.006073818,0.350232158,-0.075994147,0.032211213
-0.071312092,-0.343115866,-0.936582148,0.004845262,0.020760924,0.003567815,-0.111608811,-0.058669705,-0.006073818,0.350232158,-0.075994147,0.032211213
-0.071312092,-0.343115866,-0.936582148,0.004845262,0.020760924,0.003567815,-0.111608811,-0.058669705,-0.006073818,0.350232158,-0.075994147,0.032211213
-0.071312092,-0.343115866,-0.936582148,0.004845262,0.020760924,0.003567815,-0.111608811,-0.058669705,-0.006073818,0.350232158,-0.075994147,0.032211213
-0.07198333,-0.341988415,-0.936943054,-0.001975544,0.020671129,0.004645884,-0.061100818,-0.050936222,-0.004233255,0.349032082,-0.076677231,0.031803078
-0.07198333,-0.341988415,-0.936943054,-0.001975544,0.020671129,0.004645884,-0.061100818,-0.050936222,-0.004233255,0.349032082,-0.076677231,0.031803078
-0.07198333,-0.341988415,-0.936943054,-0.001975544,0.020671129,0.004645884,-0.061100818,-0.050936222,-0.004233255,0.349032082,-0.076677231,0.031803078
-0.07198333,-0.341988415,-0.936943054,-0.001975544,0.020671129,0.004645884,-0.061100818,-0.050936222,-0.004233255,0.349032082,-0.076677231,0.031803078
-0.072411187,-0.34201479,-0.936900496,-0.00241743,-0.000710577,0.013117731,-0.045802154,-0.044806935,0.012298052,0.349060146,-0.077134682,0.031692128
-0.072411187,-0.34201479,-0.936900496,-0.00241743,-0.000710577,0.013117731,-0.045802154,-0.044806935,0.012298052,0.349060146,-0.077134682,0.031692128
-0.072411187,-0.34201479,-0.936900496,-0.00241743,-0.000710577,0.013117731,-0.045802154,-0.044806935,0.012298052,0.349060146,-0.077134682,0.031692128
-0.072411187,-0.34201479,-0.936900496,-0.00241743,-0.000710577,0.013117731,-0.045802154,-0.044806935,0.012298052,0.349060146,-0.077134682,0.031692128
-0.072411187,-0.34201479,-0.936900496,-0.00241743,-0.000710577,0.013117731,-0.045802154,-0.044806935,0.012298052,0.349060146,-0.077134682,0.031692128
-0.073143333,-0.341281235,-0.93711108,-0.001868375,-0.002496898,0.015723944,-0.074850999,-0.052011259,0.020570576,0.348279637,-0.07789401,0.031869791
-0.073143333,-0.341281235,-0.93711108,-0.001868375,-0.002496898,0.015723944,-0.074850999,-0.052011259,0.020570576,0.348279637,-0.07789401,0.031869791
-0.073143333,-0.341281235,-0.93711108,-0.001868375,-0.002496898,0.015723944,-0.074850999,-0.052011259,0.020570576,0.348279637,-0.07789401,0.031869791
-0.073143333,-0.341281235,-0.93711108,-0.001868375,-0.002496898,0.015723944,-0.074850999,-0.052011259,0.020570576,0.348279637,-0.07789401,0.031869791
-0.073143333,-0.341281235,-0.93711108,-0.001868375,-0.002496898,0.015723944,-0.074850999,-0.052011259,0.020570576,0.348279637,-0.07789401,0.031869791
-0.073143333,-0.341281235,-0.93711108,-0.001868375,-0.002496898,0.015723944,-0.074850999,-0.052011259,0.020570576,0.348279637,-0.07789401,0.031869791
-0.073143333,-0.341281235,-0.93711108,-0.001868375,-0.002496898,0.015723944,-0.074850999,-0.052011259,0.020570576,0.348279637,-0.07789401,0.031869791
-0.073143333,-0.341281235,-0.93711108,-0.001868375,-0.002496898,0.015723944,-0.074850999,-0.052011259,0.020570576,0.348279637,-0.07789401,0.031869791
-0.073891334,-0.339297563,-0.937772512,-0.00661353,-0.015711069,0.017773867,-0.123218261,-0.037161689,-0.001549907,0.346170066,-0.078632062,0.031866526
-0.073891334,-0.339297563,-0.937772512,-0.00661353,-0.015711069,0.017773867,-0.123218261,-0.037161689,-0.001549907,0.346170066,-0.078632062,0.031866526
-0.073891334,-0.339297563,-0.937772512,-0.00661353,-0.015711069,0.017773867,-0.123218261,-0.037161689,-0.001549907,0.346170066,-0.078632062,0.031866526
-0.073891334,-0.339297563,-0.937772512,-0.00661353,-0.015711069,0.017773867,-0.123218261,-0.037161689,-0.001549907,0.346170066,-0.078632062,0.031866526
-0.073891334,-0.339297563,-0.937772512,-0.00661353,-0.015711069,0.017773867,-0.123218261,-0.037161689,-0.001549907,0.346170066,-0.078632062,0.031866526
-0.073891334,-0.339297563,-0.937772512,-0.00661353,-0.015711069,0.017773867,-0.123218261,-0.037161689,-0.001549907,0.346170066,-0.078632062,0.031866526
-0.073891334,-0.339297563,-0.937772512,-0.00661353,-0.015711069,0.017773867,-0.123218261,-0.037161689,-0.001549907,0.346170066,-0.078632062,0.031866526
-0.074216075,-0.334288448,-0.939544141,-0.005983613,0.012040406,0.01457119,-0.10693977,-0.005452955,-0.013273462,0.340850152,-0.078827896,0.030536878
-0.074216075,-0.334288448,-0.939544141,-0.005983613,0.012040406,0.01457119,-0.10693977,-0.005452955,-0.013273462,0.340850152,-0.078827896,0.030536878
-0.074216075,-0.334288448,-0.939544141,-0.005983613,0.012040406,0.01457119,-0.10693977,-0.005452955,-0.013273462,0.340850152,-0.078827896,0.030536878
-0.074216075,-0.334288448,-0.939544141,-0.005983613,0.012040406,0.01457119,-0.10693977,-0.005452955,-0.013273462,0.340850152,-0.078827896,0.030536878
-0.074216075,-0.334288448,-0.939544141,-0.005983613,0.012040406,0.01457119,-0.10693977,-0.005452955,-0.013273462,0.340850152,-0.078827896,0.030536878
-0.074318171,-0.332891315,-0.940032005,-0.00759048,0.016716391,0.006910861,-0.076000065,0.008083699,-0.00854145,0.339368127,-0.078895093,0.030217321
-0.074318171,-0.332891315,-0.940032005,-0.00759048,0.016716391,0.006910861,-0.076000065,0.008083699,-0.00854145,0.339368127,-0.078895093,0.030217321
-0.074318171,-0.332891315,-0.940032005,-0.00759048,0.016716391,0.006910861,-0.076000065,0.008083699,-0.00854145,0.339368127,-0.078895093,0.030217321
-0.074318171,-0.332891315,-0.940032005,-0.00759048,0.016716391,0.006910861,-0.076000065,0.008083699,-0.00854145,0.339368127,-0.078895093,0.030217321
-0.074318171,-0.332891315,-0.940032005,-0.00759048,0.016716391,0.006910861,-0.076000065,0.008083699,-0.00854145,0.339368127,-0.078895093,0.030217321
-0.074318171,-0.332891315,-0.940032005,-0.00759048,0.016716391,0.006910861,-0.076000065,0.008083699,-0.00854145,0.339368127,-0.078895093,0.030217321
-0.074318171,-0.332891315,-0.940032005,-0.00759048,0.016716391,0.006910861,-0.076000065,0.008083699,-0.00854145,0.339368127,-0.078895093,0.030217321
-0.074318171,-0.332891315,-0.940032005,-0.00759048,0.016716391,0.006910861,-0.076000065,0.008083699,-0.00854145,0.339368127,-0.078895093,0.030217321
-0.073917545,-0.332279712,-0.940279961,-0.012706056,0.011634022,0.016100407,-0.041889183,0.038421243,-0.015178101,0.338719601,-0.078450934,0.029985843
-0.073917545,-0.332279712,-0.940279961,-0.012706056,0.011634022,0.016100407,-0.041889183,0.038421243,-0.015178101,0.338719601,-0.078450934,0.029985843
-0.073917545,-0.332279712,-0.940279961,-0.012706056,0.011634022,0.016100407,-0.041889183,0.038421243,-0.015178101,0.338719601,-0.078450934,0.029985843
-0.073917545,-0.332279712,-0.940279961,-0.012706056,0.011634022,0.016100407,-0.041889183,0.038421243,-0.015178101,0.338719601,-0.078450934,0.029985843
-0.073286355,-0.332253963,-0.940338433,0.000121005,0.009090573,0.010360599,-0.017759852,0.034454513,-0.026219195,0.338692307,-0.077778923,0.029638837
-0.073286355,-0.332253963,-0.940338433,0.000121005,0.009090573,0.010360599,-0.017759852,0.034454513,-0.026219195,0.338692307,-0.077778923,0.029638837
-0.073286355,-0.332253963,-0.940338433,0.000121005,0.009090573,0.010360599,-0.017759852,0.034454513,-0.026219195,0.338692307,-0.077778923,0.029638837
-0.073286355,-0.332253963,-0.940338433,0.000121005,0.009090573,0.010360599,-0.017759852,0.034454513,-0.026219195,0.338692307,-0.077778923,0.029638837
-0.073286355,-0.332253963,-0.940338433,0.000121005,0.009090573,0.010360599,-0.017759852,0.034454513,-0.026219195,0.338692307,-0.077778923,0.029638837
-0.073286355,-0.332253963,-0.940338433,0.000121005,0.009090573,0.010360599,-0.017759852,0.034454513,-0.026219195,0.338692307,-0.077778923,0.029638837
-0.073286355,-0.332253963,-0.940338433,0.000121005,0.009090573,0.010360599,-0.017759852,0.034454513,-0.026219195,0.338692307,-0.077778923,0.029638837
-0.073286355,-0.332253963,-0.940338433,0.000121005,0.009090573,0.010360599,-0.017759852,0.034454513,-0.026219195,0.338692307,-0.077778923,0.029638837
-0.073286355,-0.332253963,-0.940338433,0.000121005,0.009090573,0.010360599,-0.017759852,0.034454513,-0.026219195,0.338692307,-0.077778923,0.029638837
-0.0727337,-0.332157165,-0.940415561,0.005870238,0.007742614,0.008454025,7.99E-06,0.022527596,-0.028195154,0.338589676,-0.077188424,0.029089863
-0.0727337,-0.332157165,-0.940415561,0.005870238,0.007742614,0.008454025,7.99E-06,0.022527596,-0.028195154,0.338589676,-0.077188424,0.029089863
-0.0727337,-0.332157165,-0.940415561,0.005870238,0.007742614,0.008454025,7.99E-06,0.022527596,-0.028195154,0.338589676,-0.077188424,0.029089863
-0.0727337,-0.332157165,-0.940415561,0.005870238,0.007742614,0.008454025,7.99E-06,0.022527596,-0.028195154,0.338589676,-0.077188424,0.029089863
-0.0727337,-0.332157165,-0.940415561,0.005870238,0.007742614,0.008454025,7.99E-06,0.022527596,-0.028195154,0.338589676,-0.077188424,0.029089863
-0.072408408,-0.332203716,-0.940424204,0.009130754,0.01477766,0.007226765,0.028813468,0.014503479,-0.018388329,0.338639026,-0.07684386,0.028699518
-0.072408408,-0.332203716,-0.940424204,0.009130754,0.01477766,0.007226765,0.028813468,0.014503479,-0.018388329,0.338639026,-0.07684386,0.028699518
-0.072408408,-0.332203716,-0.940424204,0.009130754,0.01477766,0.007226765,0.028813468,0.014503479,-0.018388329,0.338639026,-0.07684386,0.028699518
-0.072408408,-0.332203716,-0.940424204,0.009130754,0.01477766,0.007226765,0.028813468,0.014503479,-0.018388329,0.338639026,-0.07684386,0.028699518
-0.072408408,-0.332203716,-0.940424204,0.009130754,0.01477766,0.007226765,0.028813468,0.014503479,-0.018388329,0.338639026,-0.07684386,0.028699518
-0.072408408,-0.332203716,-0.940424204,0.009130754,0.01477766,0.007226765,0.028813468,0.014503479,-0.018388329,0.338639026,-0.07684386,0.028699518
-0.072408408,-0.332203716,-0.940424204,0.009130754,0.01477766,0.007226765,0.028813468,0.014503479,-0.018388329,0.338639026,-0.07684386,0.028699518
-0.07230594,-0.332797885,-0.940222025,0.002634861,0.00993973,0.005147696,0.043803241,0.021187201,-0.020687541,0.339269042,-0.076751981,0.028491674
-0.07230594,-0.332797885,-0.940222025,0.002634861,0.00993973,0.005147696,0.043803241,0.021187201,-0.020687541,0.339269042,-0.076751981,0.028491674
-0.07230594,-0.332797885,-0.940222025,0.002634861,0.00993973,0.005147696,0.043803241,0.021187201,-0.020687541,0.339269042,-0.076751981,0.028491674
-0.07230594,-0.332797885,-0.940222025,0.002634861,0.00993973,0.005147696,0.043803241,0.021187201,-0.020687541,0.339269042,-0.076751981,0.028491674
-0.07230594,-0.332797885,-0.940222025,0.002634861,0.00993973,0.005147696,0.043803241,0.021187201,-0.020687541,0.339269042,-0.076751981,0.028491674
-0.07230594,-0.332797885,-0.940222025,0.002634861,0.00993973,0.005147696,0.043803241,0.021187201,-0.020687541,0.339269042,-0.076751981,0.028491674
-0.071978167,-0.333645374,-0.939946771,0.00926511,0.005645066,0.007176518,0.050561681,0.004818325,-0.01849656,0.340167885,-0.076427701,0.028143821
-0.071978167,-0.333645374,-0.939946771,0.00926511,0.005645066,0.007176518,0.050561681,0.004818325,-0.01849656,0.340167885,-0.076427701,0.028143821
-0.071978167,-0.333645374,-0.939946771,0.00926511,0.005645066,0.007176518,0.050561681,0.004818325,-0.01849656,0.340167885,-0.076427701,0.028143821
-0.071978167,-0.333645374,-0.939946771,0.00926511,0.005645066,0.007176518,0.050561681,0.004818325,-0.01849656,0.340167885,-0.076427701,0.028143821
-0.071978167,-0.333645374,-0.939946771,0.00926511,0.005645066,0.007176518,0.050561681,0.004818325,-0.01849656,0.340167885,-0.076427701,0.028143821
-0.071978167,-0.333645374,-0.939946771,0.00926511,0.005645066,0.007176518,0.050561681,0.004818325,-0.01849656,0.340167885,-0.076427701,0.028143821
-0.071764715,-0.334248573,-0.939748764,0.008380279,-0.004051328,0.00763458,0.022971332,0.002447313,-0.016096786,0.340807834,-0.076217923,0.027826941
-0.071764715,-0.334248573,-0.939748764,0.008380279,-0.004051328,0.00763458,0.022971332,0.002447313,-0.016096786,0.340807834,-0.076217923,0.027826941
-0.071764715,-0.334248573,-0.939748764,0.008380279,-0.004051328,0.00763458,0.022971332,0.002447313,-0.016096786,0.340807834,-0.076217923,0.027826941
-0.071764715,-0.334248573,-0.939748764,0.008380279,-0.004051328,0.00763458,0.022971332,0.002447313,-0.016096786,0.340807834,-0.076217923,0.027826941
-0.071764715,-0.334248573,-0.939748764,0.008380279,-0.004051328,0.00763458,0.022971332,0.002447313,-0.016096786,0.340807834,-0.076217923,0.027826941
-0.071764715,-0.334248573,-0.939748764,0.008380279,-0.004051328,0.00763458,0.022971332,0.002447313,-0.016096786,0.340807834,-0.076217923,0.027826941
-0.071597524,-0.334032297,-0.939838409,0.007160239,-0.014277369,0.010776043,-0.016695201,0.002824003,-0.00650067,0.340578363,-0.076033817,0.027533493
-0.071597524,-0.334032297,-0.939838409,0.007160239,-0.014277369,0.010776043,-0.016695201,0.002824003,-0.00650067,0.340578363,-0.076033817,0.027533493
-0.071597524,-0.334032297,-0.939838409,0.007160239,-0.014277369,0.010776043,-0.016695201,0.002824003,-0.00650067,0.340578363,-0.076033817,0.027533493
-0.071597524,-0.334032297,-0.939838409,0.007160239,-0.014277369,0.010776043,-0.016695201,0.002824003,-0.00650067,0.340578363,-0.076033817,0.027533493
-0.071597524,-0.334032297,-0.939838409,0.007160239,-0.014277369,0.010776043,-0.016695201,0.002824003,-0.00650067,0.340578363,-0.076033817,0.027533493
-0.071597524,-0.334032297,-0.939838409,0.007160239,-0.014277369,0.010776043,-0.016695201,0.002824003,-0.00650067,0.340578363,-0.076033817,0.027533493
-0.071597524,-0.334032297,-0.939838409,0.007160239,-0.014277369,0.010776043,-0.016695201,0.002824003,-0.00650067,0.340578363,-0.076033817,0.027533493
-0.071653739,-0.333686173,-0.939957082,0.009413719,0.014581859,0.009719729,0.009216957,-0.022990791,0.003888055,0.340211185,-0.076083717,0.027517837
-0.071653739,-0.333686173,-0.939957082,0.009413719,0.014581859,0.009719729,0.009216957,-0.022990791,0.003888055,0.340211185,-0.076083717,0.027517837
-0.071653739,-0.333686173,-0.939957082,0.009413719,0.014581859,0.009719729,0.009216957,-0.022990791,0.003888055,0.340211185,-0.076083717,0.027517837
-0.071653739,-0.333686173,-0.939957082,0.009413719,0.014581859,0.009719729,0.009216957,-0.022990791,0.003888055,0.340211185,-0.076083717,0.027517837
-0.071653739,-0.333686173,-0.939957082,0.009413719,0.014581859,0.009719729,0.009216957,-0.022990791,0.003888055,0.340211185,-0.076083717,0.027517837
-0.071653739,-0.333686173,-0.939957082,0.009413719,0.014581859,0.009719729,0.009216957,-0.022990791,0.003888055,0.340211185,-0.076083717,0.027517837
-0.071653739,-0.333686173,-0.939957082,0.009413719,0.014581859,0.009719729,0.009216957,-0.022990791,0.003888055,0.340211185,-0.076083717,0.027517837
-0.071653739,-0.333686173,-0.939957082,0.009413719,0.014581859,0.009719729,0.009216957,-0.022990791,0.003888055,0.340211185,-0.076083717,0.027517837
-0.071653739,-0.333686173,-0.939957082,0.009413719,0.014581859,0.009719729,0.009216957,-0.022990791,0.003888055,0.340211185,-0.076083717,0.027517837
-0.072139241,-0.33422187,-0.939729571,0.007976614,0.020763278,0.001054168,0.053279743,-0.040493749,0.009081433,0.340779516,-0.076615695,0.027656009
-0.072139241,-0.33422187,-0.939729571,0.007976614,0.020763278,0.001054168,0.053279743,-0.040493749,0.009081433,0.340779516,-0.076615695,0.027656009
-0.072139241,-0.33422187,-0.939729571,0.007976614,0.020763278,0.001054168,0.053279743,-0.040493749,0.009081433,0.340779516,-0.076615695,0.027656009
-0.072139241,-0.33422187,-0.939729571,0.007976614,0.020763278,0.001054168,0.053279743,-0.040493749,0.009081433,0.340779516,-0.076615695,0.027656009
-0.072139241,-0.33422187,-0.939729571,0.007976614,0.020763278,0.001054168,0.053279743,-0.040493749,0.009081433,0.340779516,-0.076615695,0.027656009
-0.072139241,-0.33422187,-0.939729571,0.007976614,0.020763278,0.001054168,0.053279743,-0.040493749,0.009081433,0.340779516,-0.076615695,0.027656009
-0.072823003,-0.335225075,-0.939319432,0.008370489,-0.001457274,0.008746386,0.044916991,-0.05067163,0.014121359,0.34184413,-0.077372646,0.027876466
-0.072823003,-0.335225075,-0.939319432,0.008370489,-0.001457274,0.008746386,0.044916991,-0.05067163,0.014121359,0.34184413,-0.077372646,0.027876466
-0.072823003,-0.335225075,-0.939319432,0.008370489,-0.001457274,0.008746386,0.044916991,-0.05067163,0.014121359,0.34184413,-0.077372646,0.027876466
-0.072823003,-0.335225075,-0.939319432,0.008370489,-0.001457274,0.008746386,0.044916991,-0.05067163,0.014121359,0.34184413,-0.077372646,0.027876466
-0.072823003,-0.335225075,-0.939319432,0.008370489,-0.001457274,0.008746386,0.044916991,-0.05067163,0.014121359,0.34184413,-0.077372646,0.027876466
-0.072823003,-0.335225075,-0.939319432,0.008370489,-0.001457274,0.008746386,0.044916991,-0.05067163,0.014121359,0.34184413,-0.077372646,0.027876466
-0.073839292,-0.336058468,-0.938942194,0.008440748,-0.003645033,0.009772956,0.018535079,-0.063788153,0.020032616,0.342728848,-0.078479415,0.028253526
-0.073839292,-0.336058468,-0.938942194,0.008440748,-0.003645033,0.009772956,0.018535079,-0.063788153,0.020032616,0.342728848,-0.078479415,0.028253526
-0.073839292,-0.336058468,-0.938942194,0.008440748,-0.003645033,0.009772956,0.018535079,-0.063788153,0.020032616,0.342728848,-0.078479415,0.028253526
-0.073839292,-0.336058468,-0.938942194,0.008440748,-0.003645033,0.009772956,0.018535079,-0.063788153,0.020032616,0.342728848,-0.078479415,0.028253526
-0.073839292,-0.336058468,-0.938942194,0.008440748,-0.003645033,0.009772956,0.018535079,-0.063788153,0.020032616,0.342728848,-0.078479415,0.028253526
-0.073839292,-0.336058468,-0.938942194,0.008440748,-0.003645033,0.009772956,0.018535079,-0.063788153,0.020032616,0.342728848,-0.078479415,0.028253526
-0.073839292,-0.336058468,-0.938942194,0.008440748,-0.003645033,0.009772956,0.018535079,-0.063788153,0.020032616,0.342728848,-0.078479415,0.028253526
-0.073839292,-0.336058468,-0.938942194,0.008440748,-0.003645033,0.009772956,0.018535079,-0.063788153,0.020032616,0.342728848,-0.078479415,0.028253526
-0.074825786,-0.3361471,-0.938832402,-0.003954709,-0.000855625,0.010838091,0.004491058,-0.052348211,0.019046556,0.342822947,-0.079532779,0.028647577
-0.074825786,-0.3361471,-0.938832402,-0.003954709,-0.000855625,0.010838091,0.004491058,-0.052348211,0.019046556,0.342822947,-0.079532779,0.028647577
-0.074825786,-0.3361471,-0.938832402,-0.003954709,-0.000855625,0.010838091,0.004491058,-0.052348211,0.019046556,0.342822947,-0.079532779,0.028647577
-0.075644493,-0.335671514,-0.938936889,-0.002937607,-0.003146887,0.013353467,-0.005396407,-0.048759766,0.018500287,0.342318019,-0.080390349,0.028931546
-0.075644493,-0.335671514,-0.938936889,-0.002937607,-0.003146887,0.013353467,-0.005396407,-0.048759766,0.018500287,0.342318019,-0.080390349,0.028931546
-0.075644493,-0.335671514,-0.938936889,-0.002937607,-0.003146887,0.013353467,-0.005396407,-0.048759766,0.018500287,0.342318019,-0.080390349,0.028931546
-0.075644493,-0.335671514,-0.938936889,-0.002937607,-0.003146887,0.013353467,-0.005396407,-0.048759766,0.018500287,0.342318019,-0.080390349,0.028931546
-0.075644493,-0.335671514,-0.938936889,-0.002937607,-0.003146887,0.013353467,-0.005396407,-0.048759766,0.018500287,0.342318019,-0.080390349,0.028931546
-0.075644493,-0.335671514,-0.938936889,-0.002937607,-0.003146887,0.013353467,-0.005396407,-0.048759766,0.018500287,0.342318019,-0.080390349,0.028931546
-0.076453321,-0.33537513,-0.938977301,-0.003624111,-0.001749486,0.016537189,-0.019326802,-0.0393833,0.015981734,0.342003396,-0.081242687,0.029219747