gravityX,gravityY,gravityZ,accelX,accelY,accelZ,rotRateX,rotRatY,rotRateZ,attPitch,attRoll,attYaw
-0.087299928,-0.224244326,-0.970614851,0.009998873,-0.014067516,0.019549847,0.018318404,-0.049279228,0.00529511,0.226167545,-0.089701548,0.0121664
-0.087299928,-0.224244326,-0.970614851,0.009998873,-0.014067516,0.019549847,0.018318404,-0.049279228,0.00529511,0.226167545,-0.089701548,0.0121664
-0.087299928,-0.224244326,-0.970614851,0.009998873,-0.014067516,0.019549847,0.018318404,-0.049279228,0.00529511,0.226167545,-0.089701548,0.0121664
-0.087299928,-0.224244326,-0.970614851,0.009998873,-0.014067516,0.019549847,0.018318404,-0.049279228,0.00529511,0.226167545,-0.089701548,0.0121664
-0.087299928,-0.224244326,-0.970614851,0.009998873,-0.014067516,0.019549847,0.018318404,-0.049279228,0.00529511,0.226167545,-0.089701548,0.0121664
-0.087299928,-0.224244326,-0.970614851,0.009998873,-0.014067516,0.019549847,0.018318404,-0.049279228,0.00529511,0.226167545,-0.089701548,0.0121664
-0.087299928,-0.224244326,-0.970614851,0.009998873,-0.014067516,0.019549847,0.018318404,-0.049279228,0.00529511,0.226167545,-0.089701548,0.0121664
-0.081451021,-0.248924866,-0.965091765,0.002273127,0.009621218,0.013431668,0.001973266,-0.045246534,-0.001050618,0.251570027,-0.084197643,0.01072113
-0.081451021,-0.248924866,-0.965091765,0.002273127,0.009621218,0.013431668,0.001973266,-0.045246534,-0.001050618,0.251570027,-0.084197643,0.01072113
-0.081451021,-0.248924866,-0.965091765,0.002273127,0.009621218,0.013431668,0.001973266,-0.045246534,-0.001050618,0.251570027,-0.084197643,0.01072113
-0.081451021,-0.248924866,-0.965091765,0.002273127,0.009621218,0.013431668,0.001973266,-0.045246534,-0.001050618,0.251570027,-0.084197643,0.01072113
-0.081451021,-0.248924866,-0.965091765,0.002273127,0.009621218,0.013431668,0.001973266,-0.045246534,-0.001050618,0.251570027,-0.084197643,0.01072113
-0.081451021,-0.248924866,-0.965091765,0.002273127,0.009621218,0.013431668,0.001973266,-0.045246534,-0.001050618,0.251570027,-0.084197643,0.01072113
-0.081451021,-0.248924866,-0.965091765,0.002273127,0.009621218,0.013431668,0.001973266,-0.045246534,-0.001050618,0.251570027,-0.084197643,0.01072113
-0.070297249,-0.252050728,-0.96515739,-0.010040306,0.010259897,0.013802409,-0.005383051,-0.052837852,0.001958755,0.254798813,-0.072706626,0.007597679
-0.070297249,-0.252050728,-0.96515739,-0.010040306,0.010259897,0.013802409,-0.005383051,-0.052837852,0.001958755,0.254798813,-0.072706626,0.007597679
-0.070297249,-0.252050728,-0.96515739,-0.010040306,0.010259897,0.013802409,-0.005383051,-0.052837852,0.001958755,0.254798813,-0.072706626,0.007597679
-0.070297249,-0.252050728,-0.96515739,-0.010040306,0.010259897,0.013802409,-0.005383051,-0.052837852,0.001958755,0.254798813,-0.072706626,0.007597679
-0.070297249,-0.252050728,-0.96515739,-0.010040306,0.010259897,0.013802409,-0.005383051,-0.052837852,0.001958755,0.254798813,-0.072706626,0.007597679
-0.070297249,-0.252050728,-0.96515739,-0.010040306,0.010259897,0.013802409,-0.005383051,-0.052837852,0.001958755,0.254798813,-0.072706626,0.007597679
-0.070297249,-0.252050728,-0.96515739,-0.010040306,0.010259897,0.013802409,-0.005383051,-0.052837852,0.001958755,0.254798813,-0.072706626,0.007597679
-0.070297249,-0.252050728,-0.96515739,-0.010040306,0.010259897,0.013802409,-0.005383051,-0.052837852,0.001958755,0.254798813,-0.072706626,0.007597679
-0.070297249,-0.252050728,-0.96515739,-0.010040306,0.010259897,0.013802409,-0.005383051,-0.052837852,0.001958755,0.254798813,-0.072706626,0.007597679
-0.070297249,-0.252050728,-0.96515739,-0.010040306,0.010259897,0.013802409,-0.005383051,-0.052837852,0.001958755,0.254798813,-0.072706626,0.007597679
-0.070297249,-0.252050728,-0.96515739,-0.010040306,0.010259897,0.013802409,-0.005383051,-0.052837852,0.001958755,0.254798813,-0.072706626,0.007597679
-0.069300845,-0.249749541,-0.965827405,-0.010441601,0.013894439,0.016639173,0.018015869,-0.067476079,-4.11E-05,0.252421589,-0.071630062,0.007026596
-0.069300845,-0.249749541,-0.965827405,-0.010441601,0.013894439,0.016639173,0.018015869,-0.067476079,-4.11E-05,0.252421589,-0.071630062,0.007026596
-0.069300845,-0.249749541,-0.965827405,-0.010441601,0.013894439,0.016639173,0.018015869,-0.067476079,-4.11E-05,0.252421589,-0.071630062,0.007026596
-0.069300845,-0.249749541,-0.965827405,-0.010441601,0.013894439,0.016639173,0.018015869,-0.067476079,-4.11E-05,0.252421589,-0.071630062,0.007026596
-0.069300845,-0.249749541,-0.965827405,-0.010441601,0.013894439,0.016639173,0.018015869,-0.067476079,-4.11E-05,0.252421589,-0.071630062,0.007026596
-0.069300845,-0.249749541,-0.965827405,-0.010441601,0.013894439,0.016639173,0.018015869,-0.067476079,-4.11E-05,0.252421589,-0.071630062,0.007026596
-0.069300845,-0.249749541,-0.965827405,-0.010441601,0.013894439,0.016639173,0.018015869,-0.067476079,-4.11E-05,0.252421589,-0.071630062,0.007026596
-0.069300845,-0.249749541,-0.965827405,-0.010441601,0.013894439,0.016639173,0.018015869,-0.067476079,-4.11E-05,0.252421589,-0.071630062,0.007026596
-0.07206171,-0.248341173,-0.965988517,-0.0183466,0.028691024,0.019012809,0.097306058,-0.06593883,-0.006711911,0.250967405,-0.074461009,0.007401022
-0.07206171,-0.248341173,-0.965988517,-0.0183466,0.028691024,0.019012809,0.097306058,-0.06593883,-0.006711911,0.250967405,-0.074461009,0.007401022
-0.07206171,-0.248341173,-0.965988517,-0.0183466,0.028691024,0.019012809,0.097306058,-0.06593883,-0.006711911,0.250967405,-0.074461009,0.007401022
-0.07206171,-0.248341173,-0.965988517,-0.0183466,0.028691024,0.019012809,0.097306058,-0.06593883,-0.006711911,0.250967405,-0.074461009,0.007401022
-0.07206171,-0.248341173,-0.965988517,-0.0183466,0.028691024,0.019012809,0.097306058,-0.06593883,-0.006711911,0.250967405,-0.074461009,0.007401022
-0.07206171,-0.248341173,-0.965988517,-0.0183466,0.028691024,0.019012809,0.097306058,-0.06593883,-0.006711911,0.250967405,-0.074461009,0.007401022
-0.07206171,-0.248341173,-0.965988517,-0.0183466,0.028691024,0.019012809,0.097306058,-0.06593883,-0.006711911,0.250967405,-0.074461009,0.007401022
-0.07206171,-0.248341173,-0.965988517,-0.0183466,0.028691024,0.019012809,0.097306058,-0.06593883,-0.006711911,0.250967405,-0.074461009,0.007401022
-0.07206171,-0.248341173,-0.965988517,-0.0183466,0.028691024,0.019012809,0.097306058,-0.06593883,-0.006711911,0.250967405,-0.074461009,0.007401022
-0.07206171,-0.248341173,-0.965988517,-0.0183466,0.028691024,0.019012809,0.097306058,-0.06593883,-0.006711911,0.250967405,-0.074461009,0.007401022
-0.07206171,-0.248341173,-0.965988517,-0.0183466,0.028691024,0.019012809,0.097306058,-0.06593883,-0.006711911,0.250967405,-0.074461009,0.007401022
-0.07206171,-0.248341173,-0.965988517,-0.0183466,0.028691024,0.019012809,0.097306058,-0.06593883,-0.006711911,0.250967405,-0.074461009,0.007401022
-0.074743703,-0.249730334,-0.965426385,-0.017114177,0.034657806,0.019411981,0.175119385,-0.053700536,0.008113747,0.252401748,-0.077266277,0.008041529
-0.074743703,-0.249730334,-0.965426385,-0.017114177,0.034657806,0.019411981,0.175119385,-0.053700536,0.008113747,0.252401748,-0.077266277,0.008041529
-0.074743703,-0.249730334,-0.965426385,-0.017114177,0.034657806,0.019411981,0.175119385,-0.053700536,0.008113747,0.252401748,-0.077266277,0.008041529
-0.074743703,-0.249730334,-0.965426385,-0.017114177,0.034657806,0.019411981,0.175119385,-0.053700536,0.008113747,0.252401748,-0.077266277,0.008041529
-0.074743703,-0.249730334,-0.965426385,-0.017114177,0.034657806,0.019411981,0.175119385,-0.053700536,0.008113747,0.252401748,-0.077266277,0.008041529
-0.074743703,-0.249730334,-0.965426385,-0.017114177,0.034657806,0.019411981,0.175119385,-0.053700536,0.008113747,0.252401748,-0.077266277,0.008041529
-0.074743703,-0.249730334,-0.965426385,-0.017114177,0.034657806,0.019411981,0.175119385,-0.053700536,0.008113747,0.252401748,-0.077266277,0.008041529
-0.074743703,-0.249730334,-0.965426385,-0.017114177,0.034657806,0.019411981,0.175119385,-0.053700536,0.008113747,0.252401748,-0.077266277,0.008041529
-0.074743703,-0.249730334,-0.965426385,-0.017114177,0.034657806,0.019411981,0.175119385,-0.053700536,0.008113747,0.252401748,-0.077266277,0.008041529
-0.076584652,-0.252678931,-0.964514434,-0.019621983,0.017449558,0.014486969,0.223257542,-0.029218992,0.025858069,0.25544804,-0.079236045,0.008895223
-0.076584652,-0.252678931,-0.964514434,-0.019621983,0.017449558,0.014486969,0.223257542,-0.029218992,0.025858069,0.25544804,-0.079236045,0.008895223
-0.076584652,-0.252678931,-0.964514434,-0.019621983,0.017449558,0.014486969,0.223257542,-0.029218992,0.025858069,0.25544804,-0.079236045,0.008895223
-0.076584652,-0.252678931,-0.964514434,-0.019621983,0.017449558,0.014486969,0.223257542,-0.029218992,0.025858069,0.25544804,-0.079236045,0.008895223
-0.076584652,-0.252678931,-0.964514434,-0.019621983,0.017449558,0.014486969,0.223257542,-0.029218992,0.025858069,0.25544804,-0.079236045,0.008895223
-0.076584652,-0.252678931,-0.964514434,-0.019621983,0.017449558,0.014486969,0.223257542,-0.029218992,0.025858069,0.25544804,-0.079236045,0.008895223
-0.076584652,-0.252678931,-0.964514434,-0.019621983,0.017449558,0.014486969,0.223257542,-0.029218992,0.025858069,0.25544804,-0.079236045,0.008895223
-0.076584652,-0.252678931,-0.964514434,-0.019621983,0.017449558,0.014486969,0.223257542,-0.029218992,0.025858069,0.25544804,-0.079236045,0.008895223
-0.076584652,-0.252678931,-0.964514434,-0.019621983,0.017449558,0.014486969,0.223257542,-0.029218992,0.025858069,0.25544804,-0.079236045,0.008895223
-0.077540606,-0.255607367,-0.963666081,-0.017445333,0.009559512,0.029904485,0.242060661,-0.014474958,0.015182787,0.258475894,-0.080291199,0.00984104
-0.077540606,-0.255607367,-0.963666081,-0.017445333,0.009559512,0.029904485,0.242060661,-0.014474958,0.015182787,0.258475894,-0.080291199,0.00984104
-0.077540606,-0.255607367,-0.963666081,-0.017445333,0.009559512,0.029904485,0.242060661,-0.014474958,0.015182787,0.258475894,-0.080291199,0.00984104
-0.077540606,-0.255607367,-0.963666081,-0.017445333,0.009559512,0.029904485,0.242060661,-0.014474958,0.015182787,0.258475894,-0.080291199,0.00984104
-0.077540606,-0.255607367,-0.963666081,-0.017445333,0.009559512,0.029904485,0.242060661,-0.014474958,0.015182787,0.258475894,-0.080291199,0.00984104
-0.077540606,-0.255607367,-0.963666081,-0.017445333,0.009559512,0.029904485,0.242060661,-0.014474958,0.015182787,0.258475894,-0.080291199,0.00984104
-0.077540606,-0.255607367,-0.963666081,-0.017445333,0.009559512,0.029904485,0.242060661,-0.014474958,0.015182787,0.258475894,-0.080291199,0.00984104
-0.079650946,-0.25657919,-0.963235617,-0.0169219,-0.004941106,-0.020635843,0.269084901,-0.004484679,0.030060004,0.259481224,-0.082503327,0.011134074
-0.079650946,-0.25657919,-0.963235617,-0.0169219,-0.004941106,-0.020635843,0.269084901,-0.004484679,0.030060004,0.259481224,-0.082503327,0.011134074
-0.079650946,-0.25657919,-0.963235617,-0.0169219,-0.004941106,-0.020635843,0.269084901,-0.004484679,0.030060004,0.259481224,-0.082503327,0.011134074
-0.079650946,-0.25657919,-0.963235617,-0.0169219,-0.004941106,-0.020635843,0.269084901,-0.004484679,0.030060004,0.259481224,-0.082503327,0.011134074
-0.079650946,-0.25657919,-0.963235617,-0.0169219,-0.004941106,-0.020635843,0.269084901,-0.004484679,0.030060004,0.259481224,-0.082503327,0.011134074
-0.079650946,-0.25657919,-0.963235617,-0.0169219,-0.004941106,-0.020635843,0.269084901,-0.004484679,0.030060004,0.259481224,-0.082503327,0.011134074
-0.088161081,-0.294533551,-0.951565862,-0.004383355,-0.01270175,0.025784552,-0.089981757,-0.018051632,0.002619751,0.298967385,-0.092384695,0.019342563
-0.088161081,-0.294533551,-0.951565862,-0.004383355,-0.01270175,0.025784552,-0.089981757,-0.018051632,0.002619751,0.298967385,-0.092384695,0.019342563
-0.088161081,-0.294533551,-0.951565862,-0.004383355,-0.01270175,0.025784552,-0.089981757,-0.018051632,0.002619751,0.298967385,-0.092384695,0.019342563
-0.091223314,-0.297352582,-0.950399756,-0.002938487,-0.017374545,0.018591225,-0.075263001,0.009024507,-0.001873535,0.301918619,-0.095690999,0.019742885
-0.091223314,-0.297352582,-0.950399756,-0.002938487,-0.017374545,0.018591225,-0.075263001,0.009024507,-0.001873535,0.301918619,-0.095690999,0.019742885
-0.091223314,-0.297352582,-0.950399756,-0.002938487,-0.017374545,0.018591225,-0.075263001,0.009024507,-0.001873535,0.301918619,-0.095690999,0.019742885
-0.091056444,-0.295783103,-0.950905383,0.005103886,0.020255864,0.014427662,-0.024620783,0.000201868,-0.00998973,0.300275206,-0.095466539,0.019249143
-0.091056444,-0.295783103,-0.950905383,0.005103886,0.020255864,0.014427662,-0.024620783,0.000201868,-0.00998973,0.300275206,-0.095466539,0.019249143
-0.091056444,-0.295783103,-0.950905383,0.005103886,0.020255864,0.014427662,-0.024620783,0.000201868,-0.00998973,0.300275206,-0.095466539,0.019249143
-0.091350369,-0.296224207,-0.950739861,0.006908439,0.01071772,0.013453424,0.011777121,-0.016196378,0.006233768,0.300736996,-0.095789395,0.019288017
-0.091350369,-0.296224207,-0.950739861,0.006908439,0.01071772,0.013453424,0.011777121,-0.016196378,0.006233768,0.300736996,-0.095789395,0.019288017
-0.091350369,-0.296224207,-0.950739861,0.006908439,0.01071772,0.013453424,0.011777121,-0.016196378,0.006233768,0.300736996,-0.095789395,0.019288017
-0.091939174,-0.297120094,-0.950403512,0.001882032,-0.005048931,0.01772517,0.003611376,-0.015225474,0.009578324,0.301675127,-0.096436917,0.019597605
-0.091939174,-0.297120094,-0.950403512,0.001882032,-0.005048931,0.01772517,0.003611376,-0.015225474,0.009578324,0.301675127,-0.096436917,0.019597605
-0.091939174,-0.297120094,-0.950403512,0.001882032,-0.005048931,0.01772517,0.003611376,-0.015225474,0.009578324,0.301675127,-0.096436917,0.019597605
-0.091939174,-0.297120094,-0.950403512,0.001882032,-0.005048931,0.01772517,0.003611376,-0.015225474,0.009578324,0.301675127,-0.096436917,0.019597605
-0.091939174,-0.297120094,-0.950403512,0.001882032,-0.005048931,0.01772517,0.003611376,-0.015225474,0.009578324,0.301675127,-0.096436917,0.019597605
-0.091939174,-0.297120094,-0.950403512,0.001882032,-0.005048931,0.01772517,0.003611376,-0.015225474,0.009578324,0.301675127,-0.096436917,0.019597605
-0.092196479,-0.297521204,-0.950253069,-0.001751646,-0.007257074,0.015301228,-0.020367499,-0.016774017,0.006496621,0.302095221,-0.096720343,0.019705722
-0.092196479,-0.297521204,-0.950253069,-0.001751646,-0.007257074,0.015301228,-0.020367499,-0.016774017,0.006496621,0.302095221,-0.096720343,0.019705722
-0.092196479,-0.297521204,-0.950253069,-0.001751646,-0.007257074,0.015301228,-0.020367499,-0.016774017,0.006496621,0.302095221,-0.096720343,0.019705722
-0.092196479,-0.297521204,-0.950253069,-0.001751646,-0.007257074,0.015301228,-0.020367499,-0.016774017,0.006496621,0.302095221,-0.096720343,0.019705722
-0.092196479,-0.297521204,-0.950253069,-0.001751646,-0.007257074,0.015301228,-0.020367499,-0.016774017,0.006496621,0.302095221,-0.096720343,0.019705722
-0.092196479,-0.297521204,-0.950253069,-0.001751646,-0.007257074,0.015301228,-0.020367499,-0.016774017,0.006496621,0.302095221,-0.096720343,0.019705722
-0.092400119,-0.296535522,-0.950541377,-0.003745273,-0.011645436,0.017054319,-0.049459722,-0.011354546,0.001678484,0.301062973,-0.096903424,0.019631249
-0.092400119,-0.296535522,-0.950541377,-0.003745273,-0.011645436,0.017054319,-0.049459722,-0.011354546,0.001678484,0.301062973,-0.096903424,0.019631249
-0.092400119,-0.296535522,-0.950541377,-0.003745273,-0.011645436,0.017054319,-0.049459722,-0.011354546,0.001678484,0.301062973,-0.096903424,0.019631249
-0.092400119,-0.296535522,-0.950541377,-0.003745273,-0.011645436,0.017054319,-0.049459722,-0.011354546,0.001678484,0.301062973,-0.096903424,0.019631249
-0.092327625,-0.295122564,-0.950988054,-0.001605242,-0.007900953,0.019942403,-0.063470453,-0.007630405,0.000682834,0.299583784,-0.09678268,0.019488009
-0.092327625,-0.295122564,-0.950988054,-0.001605242,-0.007900953,0.019942403,-0.063470453,-0.007630405,0.000682834,0.299583784,-0.09678268,0.019488009
-0.092327625,-0.295122564,-0.950988054,-0.001605242,-0.007900953,0.019942403,-0.063470453,-0.007630405,0.000682834,0.299583784,-0.09678268,0.019488009
-0.092327625,-0.295122564,-0.950988054,-0.001605242,-0.007900953,0.019942403,-0.063470453,-0.007630405,0.000682834,0.299583784,-0.09678268,0.019488009
-0.092327625,-0.295122564,-0.950988054,-0.001605242,-0.007900953,0.019942403,-0.063470453,-0.007630405,0.000682834,0.299583784,-0.09678268,0.019488009
-0.092375435,-0.294230014,-0.951259911,-0.001709998,0.000880688,0.019161403,-0.053850986,-0.001179405,-0.000479636,0.298649782,-0.096804982,0.019356401
-0.092375435,-0.294230014,-0.951259911,-0.001709998,0.000880688,0.019161403,-0.053850986,-0.001179405,-0.000479636,0.298649782,-0.096804982,0.019356401
-0.092375435,-0.294230014,-0.951259911,-0.001709998,0.000880688,0.019161403,-0.053850986,-0.001179405,-0.000479636,0.298649782,-0.096804982,0.019356401
-0.092375435,-0.294230014,-0.951259911,-0.001709998,0.000880688,0.019161403,-0.053850986,-0.001179405,-0.000479636,0.298649782,-0.096804982,0.019356401
-0.092375435,-0.294230014,-0.951259911,-0.001709998,0.000880688,0.019161403,-0.053850986,-0.001179405,-0.000479636,0.298649782,-0.096804982,0.019356401
-0.092375435,-0.294230014,-0.951259911,-0.001709998,0.000880688,0.019161403,-0.053850986,-0.001179405,-0.000479636,0.298649782,-0.096804982,0.019356401
-0.092375435,-0.294230014,-0.951259911,-0.001709998,0.000880688,0.019161403,-0.053850986,-0.001179405,-0.000479636,0.298649782,-0.096804982,0.019356401
-0.092375435,-0.294230014,-0.951259911,-0.001709998,0.000880688,0.019161403,-0.053850986,-0.001179405,-0.000479636,0.298649782,-0.096804982,0.019356401
-0.092463881,-0.293868095,-0.951363206,-0.005329423,0.009353638,0.016808033,-0.021164929,-0.003626402,-7.93E-05,0.2982711,-0.096886632,0.019303272
-0.092463881,-0.293868095,-0.951363206,-0.005329423,0.009353638,0.016808033,-0.021164929,-0.003626402,-7.93E-05,0.2982711,-0.096886632,0.019303272
-0.092463881,-0.293868095,-0.951363206,-0.005329423,0.009353638,0.016808033,-0.021164929,-0.003626402,-7.93E-05,0.2982711,-0.096886632,0.019303272
-0.092463881,-0.293868095,-0.951363206,-0.005329423,0.009353638,0.016808033,-0.021164929,-0.003626402,-7.93E-05,0.2982711,-0.096886632,0.019303272
-0.092463881,-0.293868095,-0.951363206,-0.005329423,0.009353638,0.016808033,-0.021164929,-0.003626402,-7.93E-05,0.2982711,-0.096886632,0.019303272
-0.092463881,-0.293868095,-0.951363206,-0.005329423,0.009353638,0.016808033,-0.021164929,-0.003626402,-7.93E-05,0.2982711,-0.096886632,0.019303272
-0.092463881,-0.293868095,-0.951363206,-0.005329423,0.009353638,0.016808033,-0.021164929,-0.003626402,-7.93E-05,0.2982711,-0.096886632,0.019303272
-0.092662513,-0.294134945,-0.951261401,-0.006153122,0.00266248,0.019483328,-0.006610342,0.001924581,0.001672838,0.298550308,-0.097103788,0.01935518
-0.092662513,-0.294134945,-0.951261401,-0.006153122,0.00266248,0.019483328,-0.006610342,0.001924581,0.001672838,0.298550308,-0.097103788,0.01935518
-0.092662513,-0.294134945,-0.951261401,-0.006153122,0.00266248,0.019483328,-0.006610342,0.001924581,0.001672838,0.298550308,-0.097103788,0.01935518
-0.092662513,-0.294134945,-0.951261401,-0.006153122,0.00266248,0.019483328,-0.006610342,0.001924581,0.001672838,0.298550308,-0.097103788,0.01935518
-0.092662513,-0.294134945,-0.951261401,-0.006153122,0.00266248,0.019483328,-0.006610342,0.001924581,0.001672838,0.298550308,-0.097103788,0.01935518
-0.092662513,-0.294134945,-0.951261401,-0.006153122,0.00266248,0.019483328,-0.006610342,0.001924581,0.001672838,0.298550308,-0.097103788,0.01935518
-0.092662513,-0.294134945,-0.951261401,-0.006153122,0.00266248,0.019483328,-0.006610342,0.001924581,0.001672838,0.298550308,-0.097103788,0.01935518
-0.092662513,-0.294134945,-0.951261401,-0.006153122,0.00266248,0.019483328,-0.006610342,0.001924581,0.001672838,0.298550308,-0.097103788,0.01935518
-0.0928021,-0.294419587,-0.951159775,0.000761375,-0.001981467,0.019061208,-0.009196552,-0.000275637,0.002168932,0.298848137,-0.097259475,0.01944533
-0.0928021,-0.294419587,-0.951159775,0.000761375,-0.001981467,0.019061208,-0.009196552,-0.000275637,0.002168932,0.298848137,-0.097259475,0.01944533
-0.0928021,-0.294419587,-0.951159775,0.000761375,-0.001981467,0.019061208,-0.009196552,-0.000275637,0.002168932,0.298848137,-0.097259475,0.01944533
-0.092812128,-0.294395238,-0.951166332,-0.003836736,0.000298321,0.017724991,-0.009645174,-0.000755697,-0.002239985,0.298822637,-0.097269254,0.019454275
-0.092812128,-0.294395238,-0.951166332,-0.003836736,0.000298321,0.017724991,-0.009645174,-0.000755697,-0.002239985,0.298822637,-0.097269254,0.019454275
-0.092812128,-0.294395238,-0.951166332,-0.003836736,0.000298321,0.017724991,-0.009645174,-0.000755697,-0.002239985,0.298822637,-0.097269254,0.019454275
-0.092812128,-0.294395238,-0.951166332,-0.003836736,0.000298321,0.017724991,-0.009645174,-0.000755697,-0.002239985,0.298822637,-0.097269254,0.019454275
-0.092812128,-0.294395238,-0.951166332,-0.003836736,0.000298321,0.017724991,-0.009645174,-0.000755697,-0.002239985,0.298822637,-0.097269254,0.019454275
-0.093042031,-0.29422158,-0.951197565,-0.005025923,0.004152924,0.019877255,-0.00516856,-0.005266897,-0.001698937,0.29864093,-0.09750549,0.019445718
-0.093042031,-0.29422158,-0.951197565,-0.005025923,0.004152924,0.019877255,-0.00516856,-0.005266897,-0.001698937,0.29864093,-0.09750549,0.019445718
-0.093042031,-0.29422158,-0.951197565,-0.005025923,0.004152924,0.019877255,-0.00516856,-0.005266897,-0.001698937,0.29864093,-0.09750549,0.019445718
-0.09329804,-0.294182539,-0.951184571,0.000982672,0.001443654,0.014935672,-0.001028796,-0.003542876,0.00019276,0.29860009,-0.097773405,0.019490502
-0.09329804,-0.294182539,-0.951184571,0.000982672,0.001443654,0.014935672,-0.001028796,-0.003542876,0.00019276,0.29860009,-0.097773405,0.019490502
-0.09329804,-0.294182539,-0.951184571,0.000982672,0.001443654,0.014935672,-0.001028796,-0.003542876,0.00019276,0.29860009,-0.097773405,0.019490502
-0.093451984,-0.294282943,-0.951138437,0.006675556,-0.000348002,0.015133619,-0.005339495,-0.010410079,0.00061977,0.298705141,-0.097938425,0.019510227
-0.093451984,-0.294282943,-0.951138437,0.006675556,-0.000348002,0.015133619,-0.005339495,-0.010410079,0.00061977,0.298705141,-0.097938425,0.019510227
-0.093451984,-0.294282943,-0.951138437,0.006675556,-0.000348002,0.015133619,-0.005339495,-0.010410079,0.00061977,0.298705141,-0.097938425,0.019510227
-0.093451984,-0.294282943,-0.951138437,0.006675556,-0.000348002,0.015133619,-0.005339495,-0.010410079,0.00061977,0.298705141,-0.097938425,0.019510227
-0.093451984,-0.294282943,-0.951138437,0.006675556,-0.000348002,0.015133619,-0.005339495,-0.010410079,0.00061977,0.298705141,-0.097938425,0.019510227
-0.093451984,-0.294282943,-0.951138437,0.006675556,-0.000348002,0.015133619,-0.005339495,-0.010410079,0.00061977,0.298705141,-0.097938425,0.019510227
-0.094165683,-0.293979585,-0.951161802,-0.000499539,0.002842903,0.017903626,-0.005643109,-0.000440935,-0.003973171,0.29838775,-0.098679147,0.01950874
-0.094165683,-0.293979585,-0.951161802,-0.000499539,0.002842903,0.017903626,-0.005643109,-0.000440935,-0.003973171,0.29838775,-0.098679147,0.01950874
-0.094165683,-0.293979585,-0.951161802,-0.000499539,0.002842903,0.017903626,-0.005643109,-0.000440935,-0.003973171,0.29838775,-0.098679147,0.01950874
-0.094018906,-0.294139147,-0.951127052,-0.002614707,0.011196405,0.017990887,0.015615175,-0.00097807,-0.002553706,0.298554685,-0.098529907,0.019374018
-0.094018906,-0.294139147,-0.951127052,-0.002614707,0.011196405,0.017990887,0.015615175,-0.00097807,-0.002553706,0.298554685,-0.098529907,0.019374018
-0.094018906,-0.294139147,-0.951127052,-0.002614707,0.011196405,0.017990887,0.015615175,-0.00097807,-0.002553706,0.298554685,-0.098529907,0.019374018
-0.094049081,-0.294878155,-0.95089519,0.006067209,0.012881458,0.011747062,0.042944469,-0.00857044,-7.91E-05,0.299328011,-0.098585206,0.019400652
-0.094049081,-0.294878155,-0.95089519,0.006067209,0.012881458,0.011747062,0.042944469,-0.00857044,-7.91E-05,0.299328011,-0.098585206,0.019400652
-0.094049081,-0.294878155,-0.95089519,0.006067209,0.012881458,0.011747062,0.042944469,-0.00857044,-7.91E-05,0.299328011,-0.098585206,0.019400652
-0.094523452,-0.29600364,-0.950498402,0.00544297,0.00646919,0.013486505,0.055571672,-0.023487277,0.006035894,0.300506064,-0.099120305,0.019623505
-0.094523452,-0.29600364,-0.950498402,0.00544297,0.00646919,0.013486505,0.055571672,-0.023487277,0.006035894,0.300506064,-0.099120305,0.019623505
-0.094523452,-0.29600364,-0.950498402,0.00544297,0.00646919,0.013486505,0.055571672,-0.023487277,0.006035894,0.300506064,-0.099120305,0.019623505
-0.094523452,-0.29600364,-0.950498402,0.00544297,0.00646919,0.013486505,0.055571672,-0.023487277,0.006035894,0.300506064,-0.099120305,0.019623505
-0.094523452,-0.29600364,-0.950498402,0.00544297,0.00646919,0.013486505,0.055571672,-0.023487277,0.006035894,0.300506064,-0.099120305,0.019623505
-0.095081806,-0.296975166,-0.950139582,0.00214088,-0.004186392,0.016286254,0.037508488,-0.023719553,0.007187605,0.301523351,-0.099739358,0.019878897
-0.095081806,-0.296975166,-0.950139582,0.00214088,-0.004186392,0.016286254,0.037508488,-0.023719553,0.007187605,0.301523351,-0.099739358,0.019878897
-0.095081806,-0.296975166,-0.950139582,0.00214088,-0.004186392,0.016286254,0.037508488,-0.023719553,0.007187605,0.301523351,-0.099739358,0.019878897
-0.095081806,-0.296975166,-0.950139582,0.00214088,-0.004186392,0.016286254,0.037508488,-0.023719553,0.007187605,0.301523351,-0.099739358,0.019878897
-0.095081806,-0.296975166,-0.950139582,0.00214088,-0.004186392,0.016286254,0.037508488,-0.023719553,0.007187605,0.301523351,-0.099739358,0.019878897
-0.095081806,-0.296975166,-0.950139582,0.00214088,-0.004186392,0.016286254,0.037508488,-0.023719553,0.007187605,0.301523351,-0.099739358,0.019878897
-0.095081806,-0.296975166,-0.950139582,0.00214088,-0.004186392,0.016286254,0.037508488,-0.023719553,0.007187605,0.301523351,-0.099739358,0.019878897
-0.095081806,-0.296975166,-0.950139582,0.00214088,-0.004186392,0.016286254,0.037508488,-0.023719553,0.007187605,0.301523351,-0.099739358,0.019878897
-0.095081806,-0.296975166,-0.950139582,0.00214088,-0.004186392,0.016286254,0.037508488,-0.023719553,0.007187605,0.301523351,-0.099739358,0.019878897
-0.095081806,-0.296975166,-0.950139582,0.00214088,-0.004186392,0.016286254,0.037508488,-0.023719553,0.007187605,0.301523351,-0.099739358,0.019878897
-0.095081806,-0.296975166,-0.950139582,0.00214088,-0.004186392,0.016286254,0.037508488,-0.023719553,0.007187605,0.301523351,-0.099739358,0.019878897
-0.095081806,-0.296975166,-0.950139582,0.00214088,-0.004186392,0.016286254,0.037508488,-0.023719553,0.007187605,0.301523351,-0.099739358,0.019878897
-0.095534138,-0.297205687,-0.950022101,-0.007813275,-0.016147673,0.019556224,-0.000910498,-0.014534928,0.008977675,0.301764749,-0.10022299,0.020123441
-0.095534138,-0.297205687,-0.950022101,-0.007813275,-0.016147673,0.019556224,-0.000910498,-0.014534928,0.008977675,0.301764749,-0.10022299,0.020123441
-0.095534138,-0.297205687,-0.950022101,-0.007813275,-0.016147673,0.019556224,-0.000910498,-0.014534928,0.008977675,0.301764749,-0.10022299,0.020123441
-0.095614195,-0.296542048,-0.950221419,-0.004544131,-0.017177492,0.01801604,-0.045147695,0.0032688,0.007979949,0.301069803,-0.100285516,0.020222091
-0.095614195,-0.296542048,-0.950221419,-0.004544131,-0.017177492,0.01801604,-0.045147695,0.0032688,0.007979949,0.301069803,-0.100285516,0.020222091
-0.095614195,-0.296542048,-0.950221419,-0.004544131,-0.017177492,0.01801604,-0.045147695,0.0032688,0.007979949,0.301069803,-0.100285516,0.020222091
-0.095614195,-0.296542048,-0.950221419,-0.004544131,-0.017177492,0.01801604,-0.045147695,0.0032688,0.007979949,0.301069803,-0.100285516,0.020222091
-0.095614195,-0.296542048,-0.950221419,-0.004544131,-0.017177492,0.01801604,-0.045147695,0.0032688,0.007979949,0.301069803,-0.100285516,0.020222091
-0.095614195,-0.296542048,-0.950221419,-0.004544131,-0.017177492,0.01801604,-0.045147695,0.0032688,0.007979949,0.301069803,-0.100285516,0.020222091
-0.095614195,-0.296542048,-0.950221419,-0.004544131,-0.017177492,0.01801604,-0.045147695,0.0032688,0.007979949,0.301069803,-0.100285516,0.020222091
-0.095614195,-0.296542048,-0.950221419,-0.004544131,-0.017177492,0.01801604,-0.045147695,0.0032688,0.007979949,0.301069803,-0.100285516,0.020222091
-0.095286399,-0.295329481,-0.950631857,-0.007175989,-0.009127915,0.017999232,-0.063840702,0.021416727,0.005768406,0.299800377,-0.099901125,0.02019681
-0.095286399,-0.295329481,-0.950631857,-0.007175989,-0.009127915,0.017999232,-0.063840702,0.021416727,0.005768406,0.299800377,-0.099901125,0.02019681
-0.095286399,-0.295329481,-0.950631857,-0.007175989,-0.009127915,0.017999232,-0.063840702,0.021416727,0.005768406,0.299800377,-0.099901125,0.02019681
-0.095286399,-0.295329481,-0.950631857,-0.007175989,-0.009127915,0.017999232,-0.063840702,0.021416727,0.005768406,0.299800377,-0.099901125,0.02019681
-0.094846122,-0.294357628,-0.950977266,0.00074555,0.008897424,0.017642736,-0.051198386,0.020605845,0.005072363,0.298783305,-0.09940669,0.020138502
-0.094846122,-0.294357628,-0.950977266,0.00074555,0.008897424,0.017642736,-0.051198386,0.020605845,0.005072363,0.298783305,-0.09940669,0.020138502
-0.094846122,-0.294357628,-0.950977266,0.00074555,0.008897424,0.017642736,-0.051198386,0.020605845,0.005072363,0.298783305,-0.09940669,0.020138502
-0.094846122,-0.294357628,-0.950977266,0.00074555,0.008897424,0.017642736,-0.051198386,0.020605845,0.005072363,0.298783305,-0.09940669,0.020138502
-0.094846122,-0.294357628,-0.950977266,0.00074555,0.008897424,0.017642736,-0.051198386,0.020605845,0.005072363,0.298783305,-0.09940669,0.020138502
-0.094846122,-0.294357628,-0.950977266,0.00074555,0.008897424,0.017642736,-0.051198386,0.020605845,0.005072363,0.298783305,-0.09940669,0.020138502
-0.09473639,-0.294138283,-0.951056063,-0.000584885,0.014751047,0.016195655,-0.018769031,0.010320148,0.007870439,0.298553785,-0.099284262,0.020220514
-0.09473639,-0.294138283,-0.951056063,-0.000584885,0.014751047,0.016195655,-0.018769031,0.010320148,0.007870439,0.298553785,-0.099284262,0.020220514
-0.09473639,-0.294138283,-0.951056063,-0.000584885,0.014751047,0.016195655,-0.018769031,0.010320148,0.007870439,0.298553785,-0.099284262,0.020220514
-0.09473639,-0.294138283,-0.951056063,-0.000584885,0.014751047,0.016195655,-0.018769031,0.010320148,0.007870439,0.298553785,-0.099284262,0.020220514
-0.09473639,-0.294138283,-0.951056063,-0.000584885,0.014751047,0.016195655,-0.018769031,0.010320148,0.007870439,0.298553785,-0.099284262,0.020220514
-0.094668776,-0.294500828,-0.950950623,-0.000377841,0.011894017,0.01412183,0.003528885,0.01403527,0.00845234,0.298933152,-0.099224796,0.020441976
-0.094668776,-0.294500828,-0.950950623,-0.000377841,0.011894017,0.01412183,0.003528885,0.01403527,0.00845234,0.298933152,-0.099224796,0.020441976
-0.094668776,-0.294500828,-0.950950623,-0.000377841,0.011894017,0.01412183,0.003528885,0.01403527,0.00845234,0.298933152,-0.099224796,0.020441976
-0.094756261,-0.294968426,-0.950796962,0.004592456,0.004182905,0.01547879,0.011938415,0.003292575,0.009134109,0.299422467,-0.099331837,0.020680909
-0.094756261,-0.294968426,-0.950796962,0.004592456,0.004182905,0.01547879,0.011938415,0.003292575,0.009134109,0.299422467,-0.099331837,0.020680909
-0.094756261,-0.294968426,-0.950796962,0.004592456,0.004182905,0.01547879,0.011938415,0.003292575,0.009134109,0.299422467,-0.099331837,0.020680909
-0.094756261,-0.294968426,-0.950796962,0.004592456,0.004182905,0.01547879,0.011938415,0.003292575,0.009134109,0.299422467,-0.099331837,0.020680909
-0.094756261,-0.294968426,-0.950796962,0.004592456,0.004182905,0.01547879,0.011938415,0.003292575,0.009134109,0.299422467,-0.099331837,0.020680909
-0.094756261,-0.294968426,-0.950796962,0.004592456,0.004182905,0.01547879,0.011938415,0.003292575,0.009134109,0.299422467,-0.099331837,0.020680909
-0.094902173,-0.295146853,-0.950727046,0.004799396,0.001294345,0.01418817,0.007430269,-0.00256943,0.005355829,0.29960922,-0.099491054,0.020838682
-0.094902173,-0.295146853,-0.950727046,0.004799396,0.001294345,0.01418817,0.007430269,-0.00256943,0.005355829,0.29960922,-0.099491054,0.020838682
-0.094902173,-0.295146853,-0.950727046,0.004799396,0.001294345,0.01418817,0.007430269,-0.00256943,0.005355829,0.29960922,-0.099491054,0.020838682
-0.094902173,-0.295146853,-0.950727046,0.004799396,0.001294345,0.01418817,0.007430269,-0.00256943,0.005355829,0.29960922,-0.099491054,0.020838682
-0.094902173,-0.295146853,-0.950727046,0.004799396,0.001294345,0.01418817,0.007430269,-0.00256943,0.005355829,0.29960922,-0.099491054,0.020838682
-0.094902173,-0.295146853,-0.950727046,0.004799396,0.001294345,0.01418817,0.007430269,-0.00256943,0.005355829,0.29960922,-0.099491054,0.020838682
-0.094934173,-0.294958889,-0.95078218,0.000406362,-0.00113669,0.018241107,-0.001963526,0.005201093,0.003518408,0.299412488,-0.099518652,0.020939139
-0.094934173,-0.294958889,-0.95078218,0.000406362,-0.00113669,0.018241107,-0.001963526,0.005201093,0.003518408,0.299412488,-0.099518652,0.020939139
-0.094934173,-0.294958889,-0.95078218,0.000406362,-0.00113669,0.018241107,-0.001963526,0.005201093,0.003518408,0.299412488,-0.099518652,0.020939139
-0.094934173,-0.294958889,-0.95078218,0.000406362,-0.00113669,0.018241107,-0.001963526,0.005201093,0.003518408,0.299412488,-0.099518652,0.020939139
-0.094934173,-0.294958889,-0.95078218,0.000406362,-0.00113669,0.018241107,-0.001963526,0.005201093,0.003518408,0.299412488,-0.099518652,0.020939139
-0.094934173,-0.294958889,-0.95078218,0.000406362,-0.00113669,0.018241107,-0.001963526,0.005201093,0.003518408,0.299412488,-0.099518652,0.020939139
-0.094898224,-0.294780523,-0.950841069,-0.000331521,0.003079385,0.0144701,0.004119054,0.003067175,0.002753762,0.299225819,-0.099475091,0.021046747
-0.094898224,-0.294780523,-0.950841069,-0.000331521,0.003079385,0.0144701,0.004119054,0.003067175,0.002753762,0.299225819,-0.099475091,0.021046747
-0.094898224,-0.294780523,-0.950841069,-0.000331521,0.003079385,0.0144701,0.004119054,0.003067175,0.002753762,0.299225819,-0.099475091,0.021046747
-0.094898224,-0.294780523,-0.950841069,-0.000331521,0.003079385,0.0144701,0.004119054,0.003067175,0.002753762,0.299225819,-0.099475091,0.021046747
-0.094898224,-0.294780523,-0.950841069,-0.000331521,0.003079385,0.0144701,0.004119054,0.003067175,0.002753762,0.299225819,-0.099475091,0.021046747
-0.094898224,-0.294780523,-0.950841069,-0.000331521,0.003079385,0.0144701,0.004119054,0.003067175,0.002753762,0.299225819,-0.099475091,0.021046747
-0.09480308,-0.294838846,-0.950832486,-0.004226111,-0.00067699,0.021053255,-0.000838207,0.009379301,0.00125126,0.299286867,-0.099376906,0.021063709
-0.09480308,-0.294838846,-0.950832486,-0.004226111,-0.00067699,0.021053255,-0.000838207,0.009379301,0.00125126,0.299286867,-0.099376906,0.021063709
-0.09480308,-0.294838846,-0.950832486,-0.004226111,-0.00067699,0.021053255,-0.000838207,0.009379301,0.00125126,0.299286867,-0.099376906,0.021063709
-0.094507433,-0.294894457,-0.950844705,0.001825906,0.000294149,0.016091108,-0.002837642,0.010408094,0.000703714,0.299345055,-0.099067761,0.021021008
-0.094507433,-0.294894457,-0.950844705,0.001825906,0.000294149,0.016091108,-0.002837642,0.010408094,0.000703714,0.299345055,-0.099067761,0.021021008
-0.094418287,-0.29491663,-0.950846672,0.004193403,0.005611062,0.016428769,-0.005334727,0.001689776,-0.000350526,0.299368261,-0.098974713,0.021004168
-0.094535992,-0.294999897,-0.950809121,0.003914371,0.007861078,0.015216291,0.006710057,-0.01203117,0.000467491,0.299455417,-0.099101182,0.020997237
-0.094535992,-0.294999897,-0.950809121,0.003914371,0.007861078,0.015216291,0.006710057,-0.01203117,0.000467491,0.299455417,-0.099101182,0.020997237
-0.094535992,-0.294999897,-0.950809121,0.003914371,0.007861078,0.015216291,0.006710057,-0.01203117,0.000467491,0.299455417,-0.099101182,0.020997237
-0.094535992,-0.294999897,-0.950809121,0.003914371,0.007861078,0.015216291,0.006710057,-0.01203117,0.000467491,0.299455417,-0.099101182,0.020997237
-0.094535992,-0.294999897,-0.950809121,0.003914371,0.007861078,0.015216291,0.006710057,-0.01203117,0.000467491,0.299455417,-0.099101182,0.020997237
-0.094535992,-0.294999897,-0.950809121,0.003914371,0.007861078,0.015216291,0.006710057,-0.01203117,0.000467491,0.299455417,-0.099101182,0.020997237
-0.094994254,-0.295291781,-0.950672865,0.001504011,0.003209174,0.014317095,0.016750706,-0.020455547,0.00786229,0.299760901,-0.099592596,0.021139014
-0.094994254,-0.295291781,-0.950672865,0.001504011,0.003209174,0.014317095,0.016750706,-0.020455547,0.00786229,0.299760901,-0.099592596,0.021139014
-0.094994254,-0.295291781,-0.950672865,0.001504011,0.003209174,0.014317095,0.016750706,-0.020455547,0.00786229,0.299760901,-0.099592596,0.021139014
-0.094994254,-0.295291781,-0.950672865,0.001504011,0.003209174,0.014317095,0.016750706,-0.020455547,0.00786229,0.299760901,-0.099592596,0.021139014
-0.094994254,-0.295291781,-0.950672865,0.001504011,0.003209174,0.014317095,0.016750706,-0.020455547,0.00786229,0.299760901,-0.099592596,0.021139014
-0.095086984,-0.295670003,-0.950546026,0.001886636,0.00189361,0.013991892,-0.002449832,0.004629397,-0.004898033,0.30015679,-0.099702381,0.021217635
-0.095086984,-0.295670003,-0.950546026,0.001886636,0.00189361,0.013991892,-0.002449832,0.004629397,-0.004898033,0.30015679,-0.099702381,0.021217635
-0.095086984,-0.295670003,-0.950546026,0.001886636,0.00189361,0.013991892,-0.002449832,0.004629397,-0.004898033,0.30015679,-0.099702381,0.021217635
-0.095053062,-0.295684099,-0.950545013,0.003546439,0.007797569,0.013563633,0.008791158,-0.007158674,-0.003262373,0.300171557,-0.099667152,0.021120192
-0.095053062,-0.295684099,-0.950545013,0.003546439,0.007797569,0.013563633,0.008791158,-0.007158674,-0.003262373,0.300171557,-0.099667152,0.021120192
-0.095053062,-0.295684099,-0.950545013,0.003546439,0.007797569,0.013563633,0.008791158,-0.007158674,-0.003262373,0.300171557,-0.099667152,0.021120192
-0.095339373,-0.296215951,-0.950350761,-8.88E-05,0.014600813,0.014971554,0.03963754,-0.010333381,-0.005996161,0.30072835,-0.099985667,0.02113269
-0.095339373,-0.296215951,-0.950350761,-8.88E-05,0.014600813,0.014971554,0.03963754,-0.010333381,-0.005996161,0.30072835,-0.099985667,0.02113269
-0.095339373,-0.296215951,-0.950350761,-8.88E-05,0.014600813,0.014971554,0.03963754,-0.010333381,-0.005996161,0.30072835,-0.099985667,0.02113269
-0.095952466,-0.298719585,-0.949504972,-0.002161212,-0.002182633,0.01568222,0.001269805,0.003959129,-0.006486076,0.303350711,-0.100713349,0.021263107
-0.095952466,-0.298719585,-0.949504972,-0.002161212,-0.002182633,0.01568222,0.001269805,0.003959129,-0.006486076,0.303350711,-0.100713349,0.021263107
-0.095952466,-0.298719585,-0.949504972,-0.002161212,-0.002182633,0.01568222,0.001269805,0.003959129,-0.006486076,0.303350711,-0.100713349,0.021263107
-0.095952466,-0.298719585,-0.949504972,-0.002161212,-0.002182633,0.01568222,0.001269805,0.003959129,-0.006486076,0.303350711,-0.100713349,0.021263107
-0.095952466,-0.298719585,-0.949504972,-0.002161212,-0.002182633,0.01568222,0.001269805,0.003959129,-0.006486076,0.303350711,-0.100713349,0.021263107
-0.095952466,-0.298719585,-0.949504972,-0.002161212,-0.002182633,0.01568222,0.001269805,0.003959129,-0.006486076,0.303350711,-0.100713349,0.021263107
-0.095837355,-0.29861024,-0.949550986,0.003308393,0.002895981,0.016338587,0.004979788,-0.001213542,-0.005754239,0.303236117,-0.100588498,0.02113908
-0.095837355,-0.29861024,-0.949550986,0.003308393,0.002895981,0.016338587,0.004979788,-0.001213542,-0.005754239,0.303236117,-0.100588498,0.02113908
-0.095837355,-0.29861024,-0.949550986,0.003308393,0.002895981,0.016338587,0.004979788,-0.001213542,-0.005754239,0.303236117,-0.100588498,0.02113908
-0.095837355,-0.29861024,-0.949550986,0.003308393,0.002895981,0.016338587,0.004979788,-0.001213542,-0.005754239,0.303236117,-0.100588498,0.02113908
-0.095837355,-0.29861024,-0.949550986,0.003308393,0.002895981,0.016338587,0.004979788,-0.001213542,-0.005754239,0.303236117,-0.100588498,0.02113908
-0.095837355,-0.29861024,-0.949550986,0.003308393,0.002895981,0.016338587,0.004979788,-0.001213542,-0.005754239,0.303236117,-0.100588498,0.02113908
-0.096015379,-0.298893332,-0.949443936,0.00470712,0.004415035,0.015651703,0.017048474,-0.010229444,0.000144023,0.303532755,-0.100785366,0.021139649
-0.096015379,-0.298893332,-0.949443936,0.00470712,0.004415035,0.015651703,0.017048474,-0.010229444,0.000144023,0.303532755,-0.100785366,0.021139649
-0.096015379,-0.298893332,-0.949443936,0.00470712,0.004415035,0.015651703,0.017048474,-0.010229444,0.000144023,0.303532755,-0.100785366,0.021139649
-0.096015379,-0.298893332,-0.949443936,0.00470712,0.004415035,0.015651703,0.017048474,-0.010229444,0.000144023,0.303532755,-0.100785366,0.021139649
-0.096015379,-0.298893332,-0.949443936,0.00470712,0.004415035,0.015651703,0.017048474,-0.010229444,0.000144023,0.303532755,-0.100785366,0.021139649
-0.096202575,-0.299418747,-0.94925946,0.001461089,0.005230367,0.014933109,0.023346839,-0.002629545,-0.003753833,0.304083393,-0.101000029,0.021197652
-0.096202575,-0.299418747,-0.94925946,0.001461089,0.005230367,0.014933109,0.023346839,-0.002629545,-0.003753833,0.304083393,-0.101000029,0.021197652
-0.096202575,-0.299418747,-0.94925946,0.001461089,0.005230367,0.014933109,0.023346839,-0.002629545,-0.003753833,0.304083393,-0.101000029,0.021197652
-0.096202575,-0.299418747,-0.94925946,0.001461089,0.005230367,0.014933109,0.023346839,-0.002629545,-0.003753833,0.304083393,-0.101000029,0.021197652
-0.096202575,-0.299418747,-0.94925946,0.001461089,0.005230367,0.014933109,0.023346839,-0.002629545,-0.003753833,0.304083393,-0.101000029,0.021197652
-0.096202575,-0.299418747,-0.94925946,0.001461089,0.005230367,0.014933109,0.023346839,-0.002629545,-0.003753833,0.304083393,-0.101000029,0.021197652
-0.096380487,-0.300096184,-0.949027419,0.005209543,0.008089751,0.016364336,0.033343665,-0.009953564,-0.001938941,0.304793477,-0.101210108,0.02121912
-0.096380487,-0.300096184,-0.949027419,0.005209543,0.008089751,0.016364336,0.033343665,-0.009953564,-0.001938941,0.304793477,-0.101210108,0.02121912
-0.096380487,-0.300096184,-0.949027419,0.005209543,0.008089751,0.016364336,0.033343665,-0.009953564,-0.001938941,0.304793477,-0.101210108,0.02121912
-0.096380487,-0.300096184,-0.949027419,0.005209543,0.008089751,0.016364336,0.033343665,-0.009953564,-0.001938941,0.304793477,-0.101210108,0.02121912
-0.096380487,-0.300096184,-0.949027419,0.005209543,0.008089751,0.016364336,0.033343665,-0.009953564,-0.001938941,0.304793477,-0.101210108,0.02121912
-0.096380487,-0.300096184,-0.949027419,0.005209543,0.008089751,0.016364336,0.033343665,-0.009953564,-0.001938941,0.304793477,-0.101210108,0.02121912
-0.096605062,-0.300891221,-0.94875282,0.001283742,0.007099599,0.015387774,0.043260597,-0.013332523,-0.001023133,0.305627049,-0.10147349,0.021286248
-0.096605062,-0.300891221,-0.94875282,0.001283742,0.007099599,0.015387774,0.043260597,-0.013332523,-0.001023133,0.305627049,-0.10147349,0.021286248
-0.096605062,-0.300891221,-0.94875282,0.001283742,0.007099599,0.015387774,0.043260597,-0.013332523,-0.001023133,0.305627049,-0.10147349,0.021286248
-0.096605062,-0.300891221,-0.94875282,0.001283742,0.007099599,0.015387774,0.043260597,-0.013332523,-0.001023133,0.305627049,-0.10147349,0.021286248
-0.096605062,-0.300891221,-0.94875282,0.001283742,0.007099599,0.015387774,0.043260597,-0.013332523,-0.001023133,0.305627049,-0.10147349,0.021286248
-0.096605062,-0.300891221,-0.94875282,0.001283742,0.007099599,0.015387774,0.043260597,-0.013332523,-0.001023133,0.305627049,-0.10147349,0.021286248
-0.096821576,-0.301624507,-0.948497891,-0.000559673,-0.001352876,0.016673982,0.033211946,-0.015905052,0.004583033,0.306396064,-0.101726493,0.021402659
-0.096821576,-0.301624507,-0.948497891,-0.000559673,-0.001352876,0.016673982,0.033211946,-0.015905052,0.004583033,0.306396064,-0.101726493,0.021402659
-0.096821576,-0.301624507,-0.948497891,-0.000559673,-0.001352876,0.016673982,0.033211946,-0.015905052,0.004583033,0.306396064,-0.101726493,0.021402659
-0.096821576,-0.301624507,-0.948497891,-0.000559673,-0.001352876,0.016673982,0.033211946,-0.015905052,0.004583033,0.306396064,-0.101726493,0.021402659
-0.096821576,-0.301624507,-0.948497891,-0.000559673,-0.001352876,0.016673982,0.033211946,-0.015905052,0.004583033,0.306396064,-0.101726493,0.021402659
-0.096821576,-0.301624507,-0.948497891,-0.000559673,-0.001352876,0.016673982,0.033211946,-0.015905052,0.004583033,0.306396064,-0.101726493,0.021402659
-0.096821576,-0.301624507,-0.948497891,-0.000559673,-0.001352876,0.016673982,0.033211946,-0.015905052,0.004583033,0.306396064,-0.101726493,0.021402659
-0.096821576,-0.301624507,-0.948497891,-0.000559673,-0.001352876,0.016673982,0.033211946,-0.015905052,0.004583033,0.306396064,-0.101726493,0.021402659
-0.096821576,-0.301624507,-0.948497891,-0.000559673,-0.001352876,0.016673982,0.033211946,-0.015905052,0.004583033,0.306396064,-0.101726493,0.021402659
-0.096879564,-0.302019119,-0.948366404,-0.006696753,-0.003826946,0.021333754,-0.0023932,0.017996058,-0.004174026,0.306809962,-0.101801016,0.021533908
-0.096879564,-0.302019119,-0.948366404,-0.006696753,-0.003826946,0.021333754,-0.0023932,0.017996058,-0.004174026,0.306809962,-0.101801016,0.021533908
-0.096879564,-0.302019119,-0.948366404,-0.006696753,-0.003826946,0.021333754,-0.0023932,0.017996058,-0.004174026,0.306809962,-0.101801016,0.021533908
-0.096879564,-0.302019119,-0.948366404,-0.006696753,-0.003826946,0.021333754,-0.0023932,0.017996058,-0.004174026,0.306809962,-0.101801016,0.021533908
-0.096879564,-0.302019119,-0.948366404,-0.006696753,-0.003826946,0.021333754,-0.0023932,0.017996058,-0.004174026,0.306809962,-0.101801016,0.021533908
-0.096879564,-0.302019119,-0.948366404,-0.006696753,-0.003826946,0.021333754,-0.0023932,0.017996058,-0.004174026,0.306809962,-0.101801016,0.021533908
-0.096585147,-0.301902711,-0.948433459,0.001111269,0.00406757,0.013038993,0.003243474,0.010917968,-0.003205327,0.306687867,-0.101486637,0.021439752
-0.096585147,-0.301902711,-0.948433459,0.001111269,0.00406757,0.013038993,0.003243474,0.010917968,-0.003205327,0.306687867,-0.101486637,0.021439752
-0.096585147,-0.301902711,-0.948433459,0.001111269,0.00406757,0.013038993,0.003243474,0.010917968,-0.003205327,0.306687867,-0.101486637,0.021439752
-0.096585147,-0.301902711,-0.948433459,0.001111269,0.00406757,0.013038993,0.003243474,0.010917968,-0.003205327,0.306687867,-0.101486637,0.021439752
-0.096585147,-0.301902711,-0.948433459,0.001111269,0.00406757,0.013038993,0.003243474,0.010917968,-0.003205327,0.306687867,-0.101486637,0.021439752
-0.096585147,-0.301902711,-0.948433459,0.001111269,0.00406757,0.013038993,0.003243474,0.010917968,-0.003205327,0.306687867,-0.101486637,0.021439752
-0.096585147,-0.301902711,-0.948433459,0.001111269,0.00406757,0.013038993,0.003243474,0.010917968,-0.003205327,0.306687867,-0.101486637,0.021439752
-0.096483164,-0.302174538,-0.948357284,0.000780404,0.007101238,0.017998219,0.019016165,0.000557581,0.001645566,0.306973,-0.101388302,0.021442263
-0.096483164,-0.302174538,-0.948357284,0.000780404,0.007101238,0.017998219,0.019016165,0.000557581,0.001645566,0.306973,-0.101388302,0.021442263
-0.096483164,-0.302174538,-0.948357284,0.000780404,0.007101238,0.017998219,0.019016165,0.000557581,0.001645566,0.306973,-0.101388302,0.021442263
-0.096483164,-0.302174538,-0.948357284,0.000780404,0.007101238,0.017998219,0.019016165,0.000557581,0.001645566,0.306973,-0.101388302,0.021442263
-0.096483164,-0.302174538,-0.948357284,0.000780404,0.007101238,0.017998219,0.019016165,0.000557581,0.001645566,0.306973,-0.101388302,0.021442263
-0.096483164,-0.302174538,-0.948357284,0.000780404,0.007101238,0.017998219,0.019016165,0.000557581,0.001645566,0.306973,-0.101388302,0.021442263
-0.096483164,-0.302174538,-0.948357284,0.000780404,0.007101238,0.017998219,0.019016165,0.000557581,0.001645566,0.306973,-0.101388302,0.021442263
-0.096483164,-0.302174538,-0.948357284,0.000780404,0.007101238,0.017998219,0.019016165,0.000557581,0.001645566,0.306973,-0.101388302,0.021442263
-0.096483164,-0.302174538,-0.948357284,0.000780404,0.007101238,0.017998219,0.019016165,0.000557581,0.001645566,0.306973,-0.101388302,0.021442263
-0.096578084,-0.302713424,-0.948175728,0.000280224,0.003245622,0.01558888,0.014180291,0.005679131,0.002989504,0.307538386,-0.101506659,0.021588469
-0.096578084,-0.302713424,-0.948175728,0.000280224,0.003245622,0.01558888,0.014180291,0.005679131,0.002989504,0.307538386,-0.101506659,0.021588469
-0.096578084,-0.302713424,-0.948175728,0.000280224,0.003245622,0.01558888,0.014180291,0.005679131,0.002989504,0.307538386,-0.101506659,0.021588469
-0.09657868,-0.303043038,-0.948070407,-0.003533848,-0.002696067,0.017284036,-0.001322702,0.009973538,0.000344452,0.307884232,-0.101518487,0.021695169
-0.09657868,-0.303043038,-0.948070407,-0.003533848,-0.002696067,0.017284036,-0.001322702,0.009973538,0.000344452,0.307884232,-0.101518487,0.021695169
-0.09657868,-0.303043038,-0.948070407,-0.003533848,-0.002696067,0.017284036,-0.001322702,0.009973538,0.000344452,0.307884232,-0.101518487,0.021695169
-0.09657868,-0.303043038,-0.948070407,-0.003533848,-0.002696067,0.017284036,-0.001322702,0.009973538,0.000344452,0.307884232,-0.101518487,0.021695169
-0.09657868,-0.303043038,-0.948070407,-0.003533848,-0.002696067,0.017284036,-0.001322702,0.009973538,0.000344452,0.307884232,-0.101518487,0.021695169
-0.09657868,-0.303043038,-0.948070407,-0.003533848,-0.002696067,0.017284036,-0.001322702,0.009973538,0.000344452,0.307884232,-0.101518487,0.021695169
-0.09657868,-0.303043038,-0.948070407,-0.003533848,-0.002696067,0.017284036,-0.001322702,0.009973538,0.000344452,0.307884232,-0.101518487,0.021695169
-0.09657868,-0.303043038,-0.948070407,-0.003533848,-0.002696067,0.017284036,-0.001322702,0.009973538,0.000344452,0.307884232,-0.101518487,0.021695169
-0.09657868,-0.303043038,-0.948070407,-0.003533848,-0.002696067,0.017284036,-0.001322702,0.009973538,0.000344452,0.307884232,-0.101518487,0.021695169
-0.09630999,-0.302802652,-0.948174536,-0.001437426,-0.005881429,0.019524455,-0.026500002,0.019555362,-0.004158313,0.307631988,-0.101226943,0.021634282
-0.09630999,-0.302802652,-0.948174536,-0.001437426,-0.005881429,0.019524455,-0.026500002,0.019555362,-0.004158313,0.307631988,-0.101226943,0.021634282
-0.09630999,-0.302802652,-0.948174536,-0.001437426,-0.005881429,0.019524455,-0.026500002,0.019555362,-0.004158313,0.307631988,-0.101226943,0.021634282
-0.09630999,-0.302802652,-0.948174536,-0.001437426,-0.005881429,0.019524455,-0.026500002,0.019555362,-0.004158313,0.307631988,-0.101226943,0.021634282
-0.095953465,-0.302173465,-0.948411345,0.004477404,0.000874639,0.015961826,-0.030934084,0.019467622,-0.006449911,0.306971875,-0.100829737,0.021496591
-0.095953465,-0.302173465,-0.948411345,0.004477404,0.000874639,0.015961826,-0.030934084,0.019467622,-0.006449911,0.306971875,-0.100829737,0.021496591
-0.095953465,-0.302173465,-0.948411345,0.004477404,0.000874639,0.015961826,-0.030934084,0.019467622,-0.006449911,0.306971875,-0.100829737,0.021496591
-0.095953465,-0.302173465,-0.948411345,0.004477404,0.000874639,0.015961826,-0.030934084,0.019467622,-0.006449911,0.306971875,-0.100829737,0.021496591
-0.095953465,-0.302173465,-0.948411345,0.004477404,0.000874639,0.015961826,-0.030934084,0.019467622,-0.006449911,0.306971875,-0.100829737,0.021496591
-0.095722623,-0.30174315,-0.948571682,0.004582256,0.010072619,0.011941254,-0.011045543,0.005929008,-0.001075172,0.306520484,-0.100571911,0.02140414
-0.095722623,-0.30174315,-0.948571682,0.004582256,0.010072619,0.011941254,-0.011045543,0.005929008,-0.001075172,0.306520484,-0.100571911,0.02140414
-0.095722623,-0.30174315,-0.948571682,0.004582256,0.010072619,0.011941254,-0.011045543,0.005929008,-0.001075172,0.306520484,-0.100571911,0.02140414
-0.095722623,-0.30174315,-0.948571682,0.004582256,0.010072619,0.011941254,-0.011045543,0.005929008,-0.001075172,0.306520484,-0.100571911,0.02140414
-0.095722623,-0.30174315,-0.948571682,0.004582256,0.010072619,0.011941254,-0.011045543,0.005929008,-0.001075172,0.306520484,-0.100571911,0.02140414
-0.095722623,-0.30174315,-0.948571682,0.004582256,0.010072619,0.011941254,-0.011045543,0.005929008,-0.001075172,0.306520484,-0.100571911,0.02140414
-0.095722623,-0.30174315,-0.948571682,0.004582256,0.010072619,0.011941254,-0.011045543,0.005929008,-0.001075172,0.306520484,-0.100571911,0.02140414
-0.095722623,-0.30174315,-0.948571682,0.004582256,0.010072619,0.011941254,-0.011045543,0.005929008,-0.001075172,0.306520484,-0.100571911,0.02140414
-0.095747635,-0.301857144,-0.948532879,0.000807829,0.009698331,0.016220689,0.005085329,0.002869762,5.07E-05,0.306640053,-0.100602098,0.021448989
-0.095747635,-0.301857144,-0.948532879,0.000807829,0.009698331,0.016220689,0.005085329,0.002869762,5.07E-05,0.306640053,-0.100602098,0.021448989
-0.095747635,-0.301857144,-0.948532879,0.000807829,0.009698331,0.016220689,0.005085329,0.002869762,5.07E-05,0.306640053,-0.100602098,0.021448989
-0.095668368,-0.302241623,-0.948418438,0.00176616,0.00480327,0.01822722,0.006178357,0.009020876,0.000637934,0.307043382,-0.100531428,0.02148548
-0.095668368,-0.302241623,-0.948418438,0.00176616,0.00480327,0.01822722,0.006178357,0.009020876,0.000637934,0.307043382,-0.100531428,0.02148548
-0.095668368,-0.302241623,-0.948418438,0.00176616,0.00480327,0.01822722,0.006178357,0.009020876,0.000637934,0.307043382,-0.100531428,0.02148548
-0.095668368,-0.302241623,-0.948418438,0.00176616,0.00480327,0.01822722,0.006178357,0.009020876,0.000637934,0.307043382,-0.100531428,0.02148548
-0.095668368,-0.302241623,-0.948418438,0.00176616,0.00480327,0.01822722,0.006178357,0.009020876,0.000637934,0.307043382,-0.100531428,0.02148548
-0.095668368,-0.302241623,-0.948418438,0.00176616,0.00480327,0.01822722,0.006178357,0.009020876,0.000637934,0.307043382,-0.100531428,0.02148548
-0.095676996,-0.302448124,-0.948351741,0.009175308,-0.003092647,0.007250488,0.01056055,-0.00674362,0.001530997,0.307260019,-0.100547454,0.021511722
-0.095676996,-0.302448124,-0.948351741,0.009175308,-0.003092647,0.007250488,0.01056055,-0.00674362,0.001530997,0.307260019,-0.100547454,0.021511722
-0.095676996,-0.302448124,-0.948351741,0.009175308,-0.003092647,0.007250488,0.01056055,-0.00674362,0.001530997,0.307260019,-0.100547454,0.021511722
-0.095686227,-0.302525848,-0.948325992,-0.006547272,0.007239014,0.020301521,0.007831954,0.000677206,-0.004024036,0.307341583,-0.1005598,0.021463947
-0.095686227,-0.302525848,-0.948325992,-0.006547272,0.007239014,0.020301521,0.007831954,0.000677206,-0.004024036,0.307341583,-0.1005598,0.021463947
-0.095686227,-0.302525848,-0.948325992,-0.006547272,0.007239014,0.020301521,0.007831954,0.000677206,-0.004024036,0.307341583,-0.1005598,0.021463947
-0.095686227,-0.302525848,-0.948325992,-0.006547272,0.007239014,0.020301521,0.007831954,0.000677206,-0.004024036,0.307341583,-0.1005598,0.021463947
-0.095686227,-0.302525848,-0.948325992,-0.006547272,0.007239014,0.020301521,0.007831954,0.000677206,-0.004024036,0.307341583,-0.1005598,0.021463947
-0.095686227,-0.302525848,-0.948325992,-0.006547272,0.007239014,0.020301521,0.007831954,0.000677206,-0.004024036,0.307341583,-0.1005598,0.021463947
-0.095768496,-0.302765936,-0.948241115,0.008793779,0.011034369,0.013685822,0.022526078,-0.010254562,-0.004557468,0.307593459,-0.100654627,0.02146871
-0.095768496,-0.302765936,-0.948241115,0.008793779,0.011034369,0.013685822,0.022526078,-0.010254562,-0.004557468,0.307593459,-0.100654627,0.02146871
-0.095768496,-0.302765936,-0.948241115,0.008793779,0.011034369,0.013685822,0.022526078,-0.010254562,-0.004557468,0.307593459,-0.100654627,0.02146871
-0.095768496,-0.302765936,-0.948241115,0.008793779,0.011034369,0.013685822,0.022526078,-0.010254562,-0.004557468,0.307593459,-0.100654627,0.02146871
-0.095768496,-0.302765936,-0.948241115,0.008793779,0.011034369,0.013685822,0.022526078,-0.010254562,-0.004557468,0.307593459,-0.100654627,0.02146871
-0.095768496,-0.302765936,-0.948241115,0.008793779,0.011034369,0.013685822,0.022526078,-0.010254562,-0.004557468,0.307593459,-0.100654627,0.02146871
-0.095768496,-0.302765936,-0.948241115,0.008793779,0.011034369,0.013685822,0.022526078,-0.010254562,-0.004557468,0.307593459,-0.100654627,0.02146871
-0.095768496,-0.302765936,-0.948241115,0.008793779,0.011034369,0.013685822,0.022526078,-0.010254562,-0.004557468,0.307593459,-0.100654627,0.02146871
-0.095875345,-0.303218991,-0.948085546,0.002644524,0.006513089,0.013881207,0.032005627,-0.006222488,-0.002113911,0.308068883,-0.100782597,0.021484529
-0.095875345,-0.303218991,-0.948085546,0.002644524,0.006513089,0.013881207,0.032005627,-0.006222488,-0.002113911,0.308068883,-0.100782597,0.021484529
-0.095875345,-0.303218991,-0.948085546,0.002644524,0.006513089,0.013881207,0.032005627,-0.006222488,-0.002113911,0.308068883,-0.100782597,0.021484529
-0.095875345,-0.303218991,-0.948085546,0.002644524,0.006513089,0.013881207,0.032005627,-0.006222488,-0.002113911,0.308068883,-0.100782597,0.021484529
-0.095875345,-0.303218991,-0.948085546,0.002644524,0.006513089,0.013881207,0.032005627,-0.006222488,-0.002113911,0.308068883,-0.100782597,0.021484529
-0.095875345,-0.303218991,-0.948085546,0.002644524,0.006513089,0.013881207,0.032005627,-0.006222488,-0.002113911,0.308068883,-0.100782597,0.021484529
-0.095928036,-0.303935617,-0.947850704,0.000423655,0.0062989,0.014882386,0.038418811,-0.015602891,3.14E-05,0.308820984,-0.10086242,0.021442712
-0.095928036,-0.303935617,-0.947850704,0.000423655,0.0062989,0.014882386,0.038418811,-0.015602891,3.14E-05,0.308820984,-0.10086242,0.021442712
-0.095928036,-0.303935617,-0.947850704,0.000423655,0.0062989,0.014882386,0.038418811,-0.015602891,3.14E-05,0.308820984,-0.10086242,0.021442712
-0.095928036,-0.303935617,-0.947850704,0.000423655,0.0062989,0.014882386,0.038418811,-0.015602891,3.14E-05,0.308820984,-0.10086242,0.021442712
-0.095928036,-0.303935617,-0.947850704,0.000423655,0.0062989,0.014882386,0.038418811,-0.015602891,3.14E-05,0.308820984,-0.10086242,0.021442712
-0.095928036,-0.303935617,-0.947850704,0.000423655,0.0062989,0.014882386,0.038418811,-0.015602891,3.14E-05,0.308820984,-0.10086242,0.021442712
-0.096304014,-0.30467996,-0.947573543,-0.001321338,0.003137022,0.019900024,0.041746736,-0.010113087,-0.004155491,0.309602397,-0.101284457,0.021545843
-0.096304014,-0.30467996,-0.947573543,-0.001321338,0.003137022,0.019900024,0.041746736,-0.010113087,-0.004155491,0.309602397,-0.101284457,0.021545843
-0.096304014,-0.30467996,-0.947573543,-0.001321338,0.003137022,0.019900024,0.041746736,-0.010113087,-0.004155491,0.309602397,-0.101284457,0.021545843
-0.096304014,-0.30467996,-0.947573543,-0.001321338,0.003137022,0.019900024,0.041746736,-0.010113087,-0.004155491,0.309602397,-0.101284457,0.021545843
-0.096304014,-0.30467996,-0.947573543,-0.001321338,0.003137022,0.019900024,0.041746736,-0.010113087,-0.004155491,0.309602397,-0.101284457,0.021545843
-0.096304014,-0.30467996,-0.947573543,-0.001321338,0.003137022,0.019900024,0.041746736,-0.010113087,-0.004155491,0.309602397,-0.101284457,0.021545843
-0.096304014,-0.30467996,-0.947573543,-0.001321338,0.003137022,0.019900024,0.041746736,-0.010113087,-0.004155491,0.309602397,-0.101284457,0.021545843
-0.096329644,-0.305397242,-0.947340012,0.000306472,0.005944759,0.018049061,0.051855005,-0.011074805,0.001068193,0.310355588,-0.101336038,0.021556637
-0.096329644,-0.305397242,-0.947340012,0.000306472,0.005944759,0.018049061,0.051855005,-0.011074805,0.001068193,0.310355588,-0.101336038,0.021556637
-0.096329644,-0.305397242,-0.947340012,0.000306472,0.005944759,0.018049061,0.051855005,-0.011074805,0.001068193,0.310355588,-0.101336038,0.021556637
-0.096329644,-0.305397242,-0.947340012,0.000306472,0.005944759,0.018049061,0.051855005,-0.011074805,0.001068193,0.310355588,-0.101336038,0.021556637
-0.096329644,-0.305397242,-0.947340012,0.000306472,0.005944759,0.018049061,0.051855005,-0.011074805,0.001068193,0.310355588,-0.101336038,0.021556637
-0.096577995,-0.306261152,-0.947035789,0.004323743,-0.002148241,0.015364468,0.044874951,-0.02221448,-0.001389265,0.311262951,-0.101627912,0.021643258
-0.096577995,-0.306261152,-0.947035789,0.004323743,-0.002148241,0.015364468,0.044874951,-0.02221448,-0.001389265,0.311262951,-0.101627912,0.021643258
-0.096577995,-0.306261152,-0.947035789,0.004323743,-0.002148241,0.015364468,0.044874951,-0.02221448,-0.001389265,0.311262951,-0.101627912,0.021643258
-0.096577995,-0.306261152,-0.947035789,0.004323743,-0.002148241,0.015364468,0.044874951,-0.02221448,-0.001389265,0.311262951,-0.101627912,0.021643258
-0.096577995,-0.306261152,-0.947035789,0.004323743,-0.002148241,0.015364468,0.044874951,-0.02221448,-0.001389265,0.311262951,-0.101627912,0.021643258
-0.096577995,-0.306261152,-0.947035789,0.004323743,-0.002148241,0.015364468,0.044874951,-0.02221448,-0.001389265,0.311262951,-0.101627912,0.021643258
-0.097006284,-0.306861609,-0.946797609,0.005377643,-0.005148858,0.017842352,0.025707437,-0.024805952,-0.000980789,0.311893801,-0.102100979,0.021670716
-0.097006284,-0.306861609,-0.946797609,0.005377643,-0.005148858,0.017842352,0.025707437,-0.024805952,-0.000980789,0.311893801,-0.102100979,0.021670716
-0.097006284,-0.306861609,-0.946797609,0.005377643,-0.005148858,0.017842352,0.025707437,-0.024805952,-0.000980789,0.311893801,-0.102100979,0.021670716
-0.097006284,-0.306861609,-0.946797609,0.005377643,-0.005148858,0.017842352,0.025707437,-0.024805952,-0.000980789,0.311893801,-0.102100979,0.021670716
-0.097006284,-0.306861609,-0.946797609,0.005377643,-0.005148858,0.017842352,0.025707437,-0.024805952,-0.000980789,0.311893801,-0.102100979,0.021670716
-0.097006284,-0.306861609,-0.946797609,0.005377643,-0.005148858,0.017842352,0.025707437,-0.024805952,-0.000980789,0.311893801,-0.102100979,0.021670716
-0.097506277,-0.307208031,-0.946633875,0.00390926,0.004169703,0.014642119,0.016067419,-0.031650435,-0.005014839,0.312257786,-0.102641182,0.021613609
-0.097506277,-0.307208031,-0.946633875,0.00390926,0.004169703,0.014642119,0.016067419,-0.031650435,-0.005014839,0.312257786,-0.102641182,0.021613609
-0.097506277,-0.307208031,-0.946633875,0.00390926,0.004169703,0.014642119,0.016067419,-0.031650435,-0.005014839,0.312257786,-0.102641182,0.021613609
-0.097506277,-0.307208031,-0.946633875,0.00390926,0.004169703,0.014642119,0.016067419,-0.031650435,-0.005014839,0.312257786,-0.102641182,0.021613609
-0.097506277,-0.307208031,-0.946633875,0.00390926,0.004169703,0.014642119,0.016067419,-0.031650435,-0.005014839,0.312257786,-0.102641182,0.021613609
-0.097506277,-0.307208031,-0.946633875,0.00390926,0.004169703,0.014642119,0.016067419,-0.031650435,-0.005014839,0.312257786,-0.102641182,0.021613609
-0.097506277,-0.307208031,-0.946633875,0.00390926,0.004169703,0.014642119,0.016067419,-0.031650435,-0.005014839,0.312257786,-0.102641182,0.021613609
-0.097506277,-0.307208031,-0.946633875,0.00390926,0.004169703,0.014642119,0.016067419,-0.031650435,-0.005014839,0.312257786,-0.102641182,0.021613609
-0.098134845,-0.307705462,-0.946407378,-0.001992933,0.011182696,0.015270054,0.038249914,-0.027472697,-0.00517479,0.312780544,-0.103322716,0.021566266
-0.098134845,-0.307705462,-0.946407378,-0.001992933,0.011182696,0.015270054,0.038249914,-0.027472697,-0.00517479,0.312780544,-0.103322716,0.021566266
-0.098134845,-0.307705462,-0.946407378,-0.001992933,0.011182696,0.015270054,0.038249914,-0.027472697,-0.00517479,0.312780544,-0.103322716,0.021566266
-0.098134845,-0.307705462,-0.946407378,-0.001992933,0.011182696,0.015270054,0.038249914,-0.027472697,-0.00517479,0.312780544,-0.103322716,0.021566266
-0.098134845,-0.307705462,-0.946407378,-0.001992933,0.011182696,0.015270054,0.038249914,-0.027472697,-0.00517479,0.312780544,-0.103322716,0.021566266
-0.098134845,-0.307705462,-0.946407378,-0.001992933,0.011182696,0.015270054,0.038249914,-0.027472697,-0.00517479,0.312780544,-0.103322716,0.021566266
-0.098134845,-0.307705462,-0.946407378,-0.001992933,0.011182696,0.015270054,0.038249914,-0.027472697,-0.00517479,0.312780544,-0.103322716,0.021566266
-0.098134845,-0.307705462,-0.946407378,-0.001992933,0.011182696,0.015270054,0.038249914,-0.027472697,-0.00517479,0.312780544,-0.103322716,0.021566266
-0.098504446,-0.308691323,-0.946047843,-0.003835857,0.008460671,0.018984675,0.062275887,-0.022717889,0.001131576,0.313816848,-0.103748208,0.021575875
-0.098504446,-0.308691323,-0.946047843,-0.003835857,0.008460671,0.018984675,0.062275887,-0.022717889,0.001131576,0.313816848,-0.103748208,0.021575875
-0.098504446,-0.308691323,-0.946047843,-0.003835857,0.008460671,0.018984675,0.062275887,-0.022717889,0.001131576,0.313816848,-0.103748208,0.021575875
-0.098504446,-0.308691323,-0.946047843,-0.003835857,0.008460671,0.018984675,0.062275887,-0.022717889,0.001131576,0.313816848,-0.103748208,0.021575875
-0.098636672,-0.309680521,-0.945710719,0.001408078,-0.00707534,0.019364655,0.012272109,-0.013801361,0.012350409,0.314857032,-0.103923237,0.021724805
-0.098636672,-0.309680521,-0.945710719,0.001408078,-0.00707534,0.019364655,0.012272109,-0.013801361,0.012350409,0.314857032,-0.103923237,0.021724805
-0.098636672,-0.309680521,-0.945710719,0.001408078,-0.00707534,0.019364655,0.012272109,-0.013801361,0.012350409,0.314857032,-0.103923237,0.021724805
-0.098636672,-0.309680521,-0.945710719,0.001408078,-0.00707534,0.019364655,0.012272109,-0.013801361,0.012350409,0.314857032,-0.103923237,0.021724805
-0.098636672,-0.309680521,-0.945710719,0.001408078,-0.00707534,0.019364655,0.012272109,-0.013801361,0.012350409,0.314857032,-0.103923237,0.021724805
-0.098636672,-0.309680521,-0.945710719,0.001408078,-0.00707534,0.019364655,0.012272109,-0.013801361,0.012350409,0.314857032,-0.103923237,0.021724805
-0.098636672,-0.309680521,-0.945710719,0.001408078,-0.00707534,0.019364655,0.012272109,-0.013801361,0.012350409,0.314857032,-0.103923237,0.021724805
-0.098636672,-0.309680521,-0.945710719,0.001408078,-0.00707534,0.019364655,0.012272109,-0.013801361,0.012350409,0.314857032,-0.103923237,0.021724805
-0.098636672,-0.309680521,-0.945710719,0.001408078,-0.00707534,0.019364655,0.012272109,-0.013801361,0.012350409,0.314857032,-0.103923237,0.021724805
-0.09871833,-0.309708238,-0.945693135,-0.00716199,-0.017194718,-0.01339829,0.001953318,0.018670635,-0.021332614,0.31488618,-0.104010576,0.02179842
-0.09871833,-0.309708238,-0.945693135,-0.00716199,-0.017194718,-0.01339829,0.001953318,0.018670635,-0.021332614,0.31488618,-0.104010576,0.02179842
-0.09871833,-0.309708238,-0.945693135,-0.00716199,-0.017194718,-0.01339829,0.001953318,0.018670635,-0.021332614,0.31488618,-0.104010576,0.02179842
-0.098220035,-0.309160948,-0.945924044,0.013717271,0.007694393,0.049881995,-0.044527192,-0.003777791,0.006278668,0.314310639,-0.103464234,0.021557274
-0.098220035,-0.309160948,-0.945924044,0.013717271,0.007694393,0.049881995,-0.044527192,-0.003777791,0.006278668,0.314310639,-0.103464234,0.021557274
-0.098220035,-0.309160948,-0.945924044,0.013717271,0.007694393,0.049881995,-0.044527192,-0.003777791,0.006278668,0.314310639,-0.103464234,0.021557274
-0.098663844,-0.308128089,-0.946214855,-0.0071707,-0.005103022,-0.004148543,-0.049440205,0.010736037,0.000948564,0.313224743,-0.10389668,0.021697895
-0.098663844,-0.308128089,-0.946214855,-0.0071707,-0.005103022,-0.004148543,-0.049440205,0.010736037,0.000948564,0.313224743,-0.10389668,0.021697895
-0.098663844,-0.308128089,-0.946214855,-0.0071707,-0.005103022,-0.004148543,-0.049440205,0.010736037,0.000948564,0.313224743,-0.10389668,0.021697895
-0.098663844,-0.308128089,-0.946214855,-0.0071707,-0.005103022,-0.004148543,-0.049440205,0.010736037,0.000948564,0.313224743,-0.10389668,0.021697895
-0.098663844,-0.308128089,-0.946214855,-0.0071707,-0.005103022,-0.004148543,-0.049440205,0.010736037,0.000948564,0.313224743,-0.10389668,0.021697895
-0.098663844,-0.308128089,-0.946214855,-0.0071707,-0.005103022,-0.004148543,-0.049440205,0.010736037,0.000948564,0.313224743,-0.10389668,0.021697895
-0.098162152,-0.307455629,-0.946485758,0.006030016,0.005882323,0.019376755,-0.039994463,0.022246718,-0.003991174,0.312517972,-0.103342764,0.021556976
-0.098162152,-0.307455629,-0.946485758,0.006030016,0.005882323,0.019376755,-0.039994463,0.022246718,-0.003991174,0.312517972,-0.103342764,0.021556976
-0.098162152,-0.307455629,-0.946485758,0.006030016,0.005882323,0.019376755,-0.039994463,0.022246718,-0.003991174,0.312517972,-0.103342764,0.021556976
-0.098162152,-0.307455629,-0.946485758,0.006030016,0.005882323,0.019376755,-0.039994463,0.022246718,-0.003991174,0.312517972,-0.103342764,0.021556976
-0.098162152,-0.307455629,-0.946485758,0.006030016,0.005882323,0.019376755,-0.039994463,0.022246718,-0.003991174,0.312517972,-0.103342764,0.021556976
-0.098162152,-0.307455629,-0.946485758,0.006030016,0.005882323,0.019376755,-0.039994463,0.022246718,-0.003991174,0.312517972,-0.103342764,0.021556976
-0.098162152,-0.307455629,-0.946485758,0.006030016,0.005882323,0.019376755,-0.039994463,0.022246718,-0.003991174,0.312517972,-0.103342764,0.021556976
-0.098162152,-0.307455629,-0.946485758,0.006030016,0.005882323,0.019376755,-0.039994463,0.022246718,-0.003991174,0.312517972,-0.103342764,0.021556976
-0.098162152,-0.307455629,-0.946485758,0.006030016,0.005882323,0.019376755,-0.039994463,0.022246718,-0.003991174,0.312517972,-0.103342764,0.021556976
-0.098162152,-0.307455629,-0.946485758,0.006030016,0.005882323,0.019376755,-0.039994463,0.022246718,-0.003991174,0.312517972,-0.103342764,0.021556976
-0.098162152,-0.307455629,-0.946485758,0.006030016,0.005882323,0.019376755,-0.039994463,0.022246718,-0.003991174,0.312517972,-0.103342764,0.021556976
-0.098239228,-0.307112783,-0.946589053,0.001773626,0.014298081,0.012323678,-0.032043919,-0.007533647,0.007873263,0.312157716,-0.103412127,0.021640387
-0.098239228,-0.307112783,-0.946589053,0.001773626,0.014298081,0.012323678,-0.032043919,-0.007533647,0.007873263,0.312157716,-0.103412127,0.021640387
-0.098239228,-0.307112783,-0.946589053,0.001773626,0.014298081,0.012323678,-0.032043919,-0.007533647,0.007873263,0.312157716,-0.103412127,0.021640387
-0.098239228,-0.307112783,-0.946589053,0.001773626,0.014298081,0.012323678,-0.032043919,-0.007533647,0.007873263,0.312157716,-0.103412127,0.021640387
-0.098239228,-0.307112783,-0.946589053,0.001773626,0.014298081,0.012323678,-0.032043919,-0.007533647,0.007873263,0.312157716,-0.103412127,0.021640387
-0.098239228,-0.307112783,-0.946589053,0.001773626,0.014298081,0.012323678,-0.032043919,-0.007533647,0.007873263,0.312157716,-0.103412127,0.021640387
-0.098176233,-0.306779146,-0.946703732,-0.003233247,-0.016431123,0.018587708,-0.046276316,0.022360833,0.003047614,0.311807156,-0.103333851,0.021617844
-0.098176233,-0.306779146,-0.946703732,-0.003233247,-0.016431123,0.018587708,-0.046276316,0.022360833,0.003047614,0.311807156,-0.103333851,0.021617844
-0.098176233,-0.306779146,-0.946703732,-0.003233247,-0.016431123,0.018587708,-0.046276316,0.022360833,0.003047614,0.311807156,-0.103333851,0.021617844
-0.098176233,-0.306779146,-0.946703732,-0.003233247,-0.016431123,0.018587708,-0.046276316,0.022360833,0.003047614,0.311807156,-0.103333851,0.021617844
-0.097678944,-0.305777609,-0.947079122,0.003715768,0.003243059,0.016246974,-0.062470239,0.017833859,-0.001283377,0.310755054,-0.102773665,0.021477329
-0.097678944,-0.305777609,-0.947079122,0.003715768,0.003243059,0.016246974,-0.062470239,0.017833859,-0.001283377,0.310755054,-0.102773665,0.021477329
-0.096990146,-0.3035312,-0.947872221,0.002050437,0.002980381,0.016002476,-0.067441225,0.007299688,0.004341219,0.308396536,-0.101969182,0.021098424
-0.096990146,-0.3035312,-0.947872221,0.002050437,0.002980381,0.016002476,-0.067441225,0.007299688,0.004341219,0.308396536,-0.101969182,0.021098424
-0.096990146,-0.3035312,-0.947872221,0.002050437,0.002980381,0.016002476,-0.067441225,0.007299688,0.004341219,0.308396536,-0.101969182,0.021098424
-0.096990146,-0.3035312,-0.947872221,0.002050437,0.002980381,0.016002476,-0.067441225,0.007299688,0.004341219,0.308396536,-0.101969182,0.021098424
-0.097009838,-0.302661836,-0.948148131,-0.003621399,0.005651057,0.016415715,-0.063194849,0.012061638,0.002024695,0.307484259,-0.101960262,0.021092902
-0.097009838,-0.302661836,-0.948148131,-0.003621399,0.005651057,0.016415715,-0.063194849,0.012061638,0.002024695,0.307484259,-0.101960262,0.021092902
-0.097009838,-0.302661836,-0.948148131,-0.003621399,0.005651057,0.016415715,-0.063194849,0.012061638,0.002024695,0.307484259,-0.101960262,0.021092902
-0.097009838,-0.302661836,-0.948148131,-0.003621399,0.005651057,0.016415715,-0.063194849,0.012061638,0.002024695,0.307484259,-0.101960262,0.021092902
-0.097009838,-0.302661836,-0.948148131,-0.003621399,0.005651057,0.016415715,-0.063194849,0.012061638,0.002024695,0.307484259,-0.101960262,0.021092902
-0.097009838,-0.302661836,-0.948148131,-0.003621399,0.005651057,0.016415715,-0.063194849,0.012061638,0.002024695,0.307484259,-0.101960262,0.021092902
-0.097009838,-0.302661836,-0.948148131,-0.003621399,0.005651057,0.016415715,-0.063194849,0.012061638,0.002024695,0.307484259,-0.101960262,0.021092902
-0.096796557,-0.301818699,-0.948438644,0.002894461,0.004579067,0.016980886,-0.048999701,0.000431649,0.003371828,0.306599745,-0.101706699,0.021029094
-0.096796557,-0.301818699,-0.948438644,0.002894461,0.004579067,0.016980886,-0.048999701,0.000431649,0.003371828,0.306599745,-0.101706699,0.021029094
-0.096796557,-0.301818699,-0.948438644,0.002894461,0.004579067,0.016980886,-0.048999701,0.000431649,0.003371828,0.306599745,-0.101706699,0.021029094
-0.096930839,-0.300947428,-0.948701799,0.001151912,0.000976473,0.015672326,-0.057693977,0.005220485,0.003846456,0.30568599,-0.101818765,0.021040995
-0.096930839,-0.300947428,-0.948701799,0.001151912,0.000976473,0.015672326,-0.057693977,0.005220485,0.003846456,0.30568599,-0.101818765,0.021040995
-0.096930839,-0.300947428,-0.948701799,0.001151912,0.000976473,0.015672326,-0.057693977,0.005220485,0.003846456,0.30568599,-0.101818765,0.021040995
-0.096853703,-0.29986614,-0.949051976,0.00653743,0.00172627,0.013245463,-0.065087765,0.000972646,0.006937374,0.304552342,-0.101701018,0.021006993
-0.096853703,-0.29986614,-0.949051976,0.00653743,0.00172627,0.013245463,-0.065087765,0.000972646,0.006937374,0.304552342,-0.101701018,0.021006993
-0.096853703,-0.29986614,-0.949051976,0.00653743,0.00172627,0.013245463,-0.065087765,0.000972646,0.006937374,0.304552342,-0.101701018,0.021006993
-0.096895784,-0.297485054,-0.949796736,0.001071118,0.005372405,0.014646351,-0.061454564,0.009083631,-0.001998117,0.302057362,-0.101665666,0.020825181
-0.096895784,-0.297485054,-0.949796736,0.001071118,0.005372405,0.014646351,-0.061454564,0.009083631,-0.001998117,0.302057362,-0.101665666,0.020825181
-0.096895784,-0.297485054,-0.949796736,0.001071118,0.005372405,0.014646351,-0.061454564,0.009083631,-0.001998117,0.302057362,-0.101665666,0.020825181
-0.096595787,-0.296839267,-0.950029314,0.001350947,0.022640467,0.014665306,-0.018143188,0.017179484,0.001502023,0.301381025,-0.101328416,0.020638249
-0.096595787,-0.296839267,-0.950029314,0.001350947,0.022640467,0.014665306,-0.018143188,0.017179484,0.001502023,0.301381025,-0.101328416,0.020638249
-0.096595787,-0.296839267,-0.950029314,0.001350947,0.022640467,0.014665306,-0.018143188,0.017179484,0.001502023,0.301381025,-0.101328416,0.020638249
-0.096595787,-0.296839267,-0.950029314,0.001350947,0.022640467,0.014665306,-0.018143188,0.017179484,0.001502023,0.301381025,-0.101328416,0.020638249
-0.096595787,-0.296839267,-0.950029314,0.001350947,0.022640467,0.014665306,-0.018143188,0.017179484,0.001502023,0.301381025,-0.101328416,0.020638249
-0.096595787,-0.296839267,-0.950029314,0.001350947,0.022640467,0.014665306,-0.018143188,0.017179484,0.001502023,0.301381025,-0.101328416,0.020638249
-0.096595787,-0.296839267,-0.950029314,0.001350947,0.022640467,0.014665306,-0.018143188,0.017179484,0.001502023,0.301381025,-0.101328416,0.020638249
-0.096455239,-0.296866357,-0.950035155,0.01178474,0.014671952,0.01464057,-0.001611602,-0.008488947,0.006194033,0.301409403,-0.101181369,0.020599202
-0.096455239,-0.296866357,-0.950035155,0.01178474,0.014671952,0.01464057,-0.001611602,-0.008488947,0.006194033,0.301409403,-0.101181369,0.020599202
-0.096764214,-0.296771735,-0.950033307,0.007836513,-0.002222598,0.013356984,-0.007502981,-0.01434128,0.00400598,0.301310305,-0.101503459,0.020756764
-0.096764214,-0.296771735,-0.950033307,0.007836513,-0.002222598,0.013356984,-0.007502981,-0.01434128,0.00400598,0.301310305,-0.101503459,0.020756764
-0.096764214,-0.296771735,-0.950033307,0.007836513,-0.002222598,0.013356984,-0.007502981,-0.01434128,0.00400598,0.301310305,-0.101503459,0.020756764
-0.097370982,-0.296671867,-0.950002491,-0.001200274,0.009533614,0.016408443,0.018822765,-0.010724151,-0.00424183,0.301205741,-0.102138835,0.020747099
-0.097370982,-0.296671867,-0.950002491,-0.001200274,0.009533614,0.016408443,0.018822765,-0.010724151,-0.00424183,0.301205741,-0.102138835,0.020747099
-0.097370982,-0.296671867,-0.950002491,-0.001200274,0.009533614,0.016408443,0.018822765,-0.010724151,-0.00424183,0.301205741,-0.102138835,0.020747099
-0.097370982,-0.296671867,-0.950002491,-0.001200274,0.009533614,0.016408443,0.018822765,-0.010724151,-0.00424183,0.301205741,-0.102138835,0.020747099
-0.097370982,-0.296671867,-0.950002491,-0.001200274,0.009533614,0.016408443,0.018822765,-0.010724151,-0.00424183,0.301205741,-0.102138835,0.020747099
-0.097370982,-0.296671867,-0.950002491,-0.001200274,0.009533614,0.016408443,0.018822765,-0.010724151,-0.00424183,0.301205741,-0.102138835,0.020747099
-0.097370982,-0.296671867,-0.950002491,-0.001200274,0.009533614,0.016408443,0.018822765,-0.010724151,-0.00424183,0.301205741,-0.102138835,0.020747099
-0.097370982,-0.296671867,-0.950002491,-0.001200274,0.009533614,0.016408443,0.018822765,-0.010724151,-0.00424183,0.301205741,-0.102138835,0.020747099
-0.097370982,-0.296671867,-0.950002491,-0.001200274,0.009533614,0.016408443,0.018822765,-0.010724151,-0.00424183,0.301205741,-0.102138835,0.020747099
-0.097323224,-0.296968162,-0.949914813,0.000247329,0.009509474,0.016091883,0.038419731,-0.005425464,0.004382391,0.301516012,-0.102098442,0.020807202
-0.097323224,-0.296968162,-0.949914813,0.000247329,0.009509474,0.016091883,0.038419731,-0.005425464,0.004382391,0.301516012,-0.102098442,0.020807202
-0.097323224,-0.296968162,-0.949914813,0.000247329,0.009509474,0.016091883,0.038419731,-0.005425464,0.004382391,0.301516012,-0.102098442,0.020807202
-0.097323224,-0.296968162,-0.949914813,0.000247329,0.009509474,0.016091883,0.038419731,-0.005425464,0.004382391,0.301516012,-0.102098442,0.020807202
-0.097199887,-0.297669768,-0.949707806,-0.002164803,-0.004757732,0.017410755,0.023732929,-0.000722588,0.00847061,0.302250849,-0.101992018,0.020944241
-0.097199887,-0.297669768,-0.949707806,-0.002164803,-0.004757732,0.017410755,0.023732929,-0.000722588,0.00847061,0.302250849,-0.101992018,0.020944241
-0.097199887,-0.297669768,-0.949707806,-0.002164803,-0.004757732,0.017410755,0.023732929,-0.000722588,0.00847061,0.302250849,-0.101992018,0.020944241
-0.097199887,-0.297669768,-0.949707806,-0.002164803,-0.004757732,0.017410755,0.023732929,-0.000722588,0.00847061,0.302250849,-0.101992018,0.020944241
-0.097199887,-0.297669768,-0.949707806,-0.002164803,-0.004757732,0.017410755,0.023732929,-0.000722588,0.00847061,0.302250849,-0.101992018,0.020944241
-0.097199887,-0.297669768,-0.949707806,-0.002164803,-0.004757732,0.017410755,0.023732929,-0.000722588,0.00847061,0.302250849,-0.101992018,0.020944241
-0.097120292,-0.297707677,-0.949704051,-0.005967543,-0.012684941,0.018475175,-0.007518307,0.011653726,0.002527339,0.302290542,-0.101909478,0.021046938
-0.097120292,-0.297707677,-0.949704051,-0.005967543,-0.012684941,0.018475175,-0.007518307,0.011653726,0.002527339,0.302290542,-0.101909478,0.021046938
-0.097120292,-0.297707677,-0.949704051,-0.005967543,-0.012684941,0.018475175,-0.007518307,0.011653726,0.002527339,0.302290542,-0.101909478,0.021046938
-0.097120292,-0.297707677,-0.949704051,-0.005967543,-0.012684941,0.018475175,-0.007518307,0.011653726,0.002527339,0.302290542,-0.101909478,0.021046938
-0.097120292,-0.297707677,-0.949704051,-0.005967543,-0.012684941,0.018475175,-0.007518307,0.011653726,0.002527339,0.302290542,-0.101909478,0.021046938
-0.097120292,-0.297707677,-0.949704051,-0.005967543,-0.012684941,0.018475175,-0.007518307,0.011653726,0.002527339,0.302290542,-0.101909478,0.021046938
-0.097120292,-0.297707677,-0.949704051,-0.005967543,-0.012684941,0.018475175,-0.007518307,0.011653726,0.002527339,0.302290542,-0.101909478,0.021046938
-0.097120292,-0.297707677,-0.949704051,-0.005967543,-0.012684941,0.018475175,-0.007518307,0.011653726,0.002527339,0.302290542,-0.101909478,0.021046938
-0.097120292,-0.297707677,-0.949704051,-0.005967543,-0.012684941,0.018475175,-0.007518307,0.011653726,0.002527339,0.302290542,-0.101909478,0.021046938
-0.096856274,-0.297263712,-0.94987005,-0.007467523,0.005029082,0.020838439,-0.01691282,0.023659885,-0.001305535,0.30182552,-0.101616702,0.021023891
-0.096856274,-0.297263712,-0.94987005,-0.007467523,0.005029082,0.020838439,-0.01691282,0.023659885,-0.001305535,0.30182552,-0.101616702,0.021023891
-0.096856274,-0.297263712,-0.94987005,-0.007467523,0.005029082,0.020838439,-0.01691282,0.023659885,-0.001305535,0.30182552,-0.101616702,0.021023891
-0.096856274,-0.297263712,-0.94987005,-0.007467523,0.005029082,0.020838439,-0.01691282,0.023659885,-0.001305535,0.30182552,-0.101616702,0.021023891
-0.096856274,-0.297263712,-0.94987005,-0.007467523,0.005029082,0.020838439,-0.01691282,0.023659885,-0.001305535,0.30182552,-0.101616702,0.021023891
-0.096856274,-0.297263712,-0.94987005,-0.007467523,0.005029082,0.020838439,-0.01691282,0.023659885,-0.001305535,0.30182552,-0.101616702,0.021023891
-0.096428916,-0.296971589,-0.950004935,-0.001715079,0.010977805,0.014137328,-0.005829982,0.023044491,0.003427008,0.301519591,-0.101157138,0.021021581
-0.096428916,-0.296971589,-0.950004935,-0.001715079,0.010977805,0.014137328,-0.005829982,0.023044491,0.003427008,0.301519591,-0.101157138,0.021021581