gravityX,gravityY,gravityZ,accelX,accelY,accelZ,rotRateX,rotRatY,rotRateZ,attPitch,attRoll,attYaw
-0.911138833,-0.393844038,-0.121296741,0.009374917,0.029113203,0.019581676,-0.170288563,-0.046248939,0.032321028,0.404809912,-1.438448,0.355616236
-0.911138833,-0.393844038,-0.121296741,0.009374917,0.029113203,0.019581676,-0.170288563,-0.046248939,0.032321028,0.404809912,-1.438448,0.355616236
-0.911138833,-0.393844038,-0.121296741,0.009374917,0.029113203,0.019581676,-0.170288563,-0.046248939,0.032321028,0.404809912,-1.438448,0.355616236
-0.911138833,-0.393844038,-0.121296741,0.009374917,0.029113203,0.019581676,-0.170288563,-0.046248939,0.032321028,0.404809912,-1.438448,0.355616236
-0.911138833,-0.393844038,-0.121296741,0.009374917,0.029113203,0.019581676,-0.170288563,-0.046248939,0.032321028,0.404809912,-1.438448,0.355616236
-0.911138833,-0.393844038,-0.121296741,0.009374917,0.029113203,0.019581676,-0.170288563,-0.046248939,0.032321028,0.404809912,-1.438448,0.355616236
-0.911423922,-0.393286735,-0.120962478,-0.008055449,0.005209923,0.016149879,-0.061096221,-0.037328888,-0.030228904,0.40420367,-1.438849303,0.351550999
-0.911423922,-0.393286735,-0.120962478,-0.008055449,0.005209923,0.016149879,-0.061096221,-0.037328888,-0.030228904,0.40420367,-1.438849303,0.351550999
-0.911423922,-0.393286735,-0.120962478,-0.008055449,0.005209923,0.016149879,-0.061096221,-0.037328888,-0.030228904,0.40420367,-1.438849303,0.351550999
-0.911512434,-0.39201504,-0.124375246,-0.0290097,0.030060917,0.01434499,0.104476169,0.099347554,0.080864057,0.402820938,-1.435184501,0.345183557
-0.911512434,-0.39201504,-0.124375246,-0.0290097,0.030060917,0.01434499,0.104476169,0.099347554,0.080864057,0.402820938,-1.435184501,0.345183557
-0.911512434,-0.39201504,-0.124375246,-0.0290097,0.030060917,0.01434499,0.104476169,0.099347554,0.080864057,0.402820938,-1.435184501,0.345183557
-0.905436933,-0.404037267,-0.130145743,-0.024739683,0.100509048,0.028538346,0.340665013,0.168076426,0.029221427,0.41592613,-1.428036086,0.353069744
-0.905436933,-0.404037267,-0.130145743,-0.024739683,0.100509048,0.028538346,0.340665013,0.168076426,0.029221427,0.41592613,-1.428036086,0.353069744
-0.905436933,-0.404037267,-0.130145743,-0.024739683,0.100509048,0.028538346,0.340665013,0.168076426,0.029221427,0.41592613,-1.428036086,0.353069744
-0.905436933,-0.404037267,-0.130145743,-0.024739683,0.100509048,0.028538346,0.340665013,0.168076426,0.029221427,0.41592613,-1.428036086,0.353069744
-0.905436933,-0.404037267,-0.130145743,-0.024739683,0.100509048,0.028538346,0.340665013,0.168076426,0.029221427,0.41592613,-1.428036086,0.353069744
-0.905436933,-0.404037267,-0.130145743,-0.024739683,0.100509048,0.028538346,0.340665013,0.168076426,0.029221427,0.41592613,-1.428036086,0.353069744
-0.905436933,-0.404037267,-0.130145743,-0.024739683,0.100509048,0.028538346,0.340665013,0.168076426,0.029221427,0.41592613,-1.428036086,0.353069744
-0.921870232,-0.368267,-0.12056046,-0.002416551,0.002574474,0.024842918,0.191173017,0.251498669,0.007864848,0.377144326,-1.440756205,0.371370347
-0.921870232,-0.368267,-0.12056046,-0.002416551,0.002574474,0.024842918,0.191173017,0.251498669,0.007864848,0.377144326,-1.440756205,0.371370347
-0.921870232,-0.368267,-0.12056046,-0.002416551,0.002574474,0.024842918,0.191173017,0.251498669,0.007864848,0.377144326,-1.440756205,0.371370347
-0.921870232,-0.368267,-0.12056046,-0.002416551,0.002574474,0.024842918,0.191173017,0.251498669,0.007864848,0.377144326,-1.440756205,0.371370347
-0.921870232,-0.368267,-0.12056046,-0.002416551,0.002574474,0.024842918,0.191173017,0.251498669,0.007864848,0.377144326,-1.440756205,0.371370347
-0.932368398,-0.344812751,-0.108597465,0.002145946,-0.070898056,-0.024351478,0.143598929,-0.012371278,0.001974841,0.352039292,-1.454843947,0.385503061
-0.932368398,-0.344812751,-0.108597465,0.002145946,-0.070898056,-0.024351478,0.143598929,-0.012371278,0.001974841,0.352039292,-1.454843947,0.385503061
-0.932368398,-0.344812751,-0.108597465,0.002145946,-0.070898056,-0.024351478,0.143598929,-0.012371278,0.001974841,0.352039292,-1.454843947,0.385503061
-0.925623953,-0.363034397,-0.106893845,0.01268971,-0.052050829,-0.042702496,0.160677224,0.040704008,-0.024847878,0.371522395,-1.455822617,0.391845966
-0.925623953,-0.363034397,-0.106893845,0.01268971,-0.052050829,-0.042702496,0.160677224,0.040704008,-0.024847878,0.371522395,-1.455822617,0.391845966
-0.925623953,-0.363034397,-0.106893845,0.01268971,-0.052050829,-0.042702496,0.160677224,0.040704008,-0.024847878,0.371522395,-1.455822617,0.391845966
-0.922308624,-0.370939225,-0.108402185,0.030339837,-0.041307896,-0.017085075,0.046695996,-0.001244604,-0.020030433,0.380020207,-1.453799564,0.394880337
-0.922308624,-0.370939225,-0.108402185,0.030339837,-0.041307896,-0.017085075,0.046695996,-0.001244604,-0.020030433,0.380020207,-1.453799564,0.394880337
-0.922308624,-0.370939225,-0.108402185,0.030339837,-0.041307896,-0.017085075,0.046695996,-0.001244604,-0.020030433,0.380020207,-1.453799564,0.394880337
-0.922308624,-0.370939225,-0.108402185,0.030339837,-0.041307896,-0.017085075,0.046695996,-0.001244604,-0.020030433,0.380020207,-1.453799564,0.394880337
-0.922308624,-0.370939225,-0.108402185,0.030339837,-0.041307896,-0.017085075,0.046695996,-0.001244604,-0.020030433,0.380020207,-1.453799564,0.394880337
-0.922308624,-0.370939225,-0.108402185,0.030339837,-0.041307896,-0.017085075,0.046695996,-0.001244604,-0.020030433,0.380020207,-1.453799564,0.394880337
-0.922308624,-0.370939225,-0.108402185,0.030339837,-0.041307896,-0.017085075,0.046695996,-0.001244604,-0.020030433,0.380020207,-1.453799564,0.394880337
-0.922308624,-0.370939225,-0.108402185,0.030339837,-0.041307896,-0.017085075,0.046695996,-0.001244604,-0.020030433,0.380020207,-1.453799564,0.394880337
-0.922308624,-0.370939225,-0.108402185,0.030339837,-0.041307896,-0.017085075,0.046695996,-0.001244604,-0.020030433,0.380020207,-1.453799564,0.394880337
-0.922308624,-0.370939225,-0.108402185,0.030339837,-0.041307896,-0.017085075,0.046695996,-0.001244604,-0.020030433,0.380020207,-1.453799564,0.394880337
-0.922308624,-0.370939225,-0.108402185,0.030339837,-0.041307896,-0.017085075,0.046695996,-0.001244604,-0.020030433,0.380020207,-1.453799564,0.394880337
-0.922308624,-0.370939225,-0.108402185,0.030339837,-0.041307896,-0.017085075,0.046695996,-0.001244604,-0.020030433,0.380020207,-1.453799564,0.394880337
-0.918716967,-0.378440648,-0.11287953,0.001312196,-0.003761768,0.001033127,0.068117023,-0.005377806,-0.014401736,0.388111072,-1.448542563,0.395139242
-0.918716967,-0.378440648,-0.11287953,0.001312196,-0.003761768,0.001033127,0.068117023,-0.005377806,-0.014401736,0.388111072,-1.448542563,0.395139242
-0.918716967,-0.378440648,-0.11287953,0.001312196,-0.003761768,0.001033127,0.068117023,-0.005377806,-0.014401736,0.388111072,-1.448542563,0.395139242
-0.918716967,-0.378440648,-0.11287953,0.001312196,-0.003761768,0.001033127,0.068117023,-0.005377806,-0.014401736,0.388111072,-1.448542563,0.395139242
-0.918716967,-0.378440648,-0.11287953,0.001312196,-0.003761768,0.001033127,0.068117023,-0.005377806,-0.014401736,0.388111072,-1.448542563,0.395139242
-0.918716967,-0.378440648,-0.11287953,0.001312196,-0.003761768,0.001033127,0.068117023,-0.005377806,-0.014401736,0.388111072,-1.448542563,0.395139242
-0.918716967,-0.378440648,-0.11287953,0.001312196,-0.003761768,0.001033127,0.068117023,-0.005377806,-0.014401736,0.388111072,-1.448542563,0.395139242
-0.918716967,-0.378440648,-0.11287953,0.001312196,-0.003761768,0.001033127,0.068117023,-0.005377806,-0.014401736,0.388111072,-1.448542563,0.395139242
-0.918716967,-0.378440648,-0.11287953,0.001312196,-0.003761768,0.001033127,0.068117023,-0.005377806,-0.014401736,0.388111072,-1.448542563,0.395139242
-0.918716967,-0.378440648,-0.11287953,0.001312196,-0.003761768,0.001033127,0.068117023,-0.005377806,-0.014401736,0.388111072,-1.448542563,0.395139242
-0.918716967,-0.378440648,-0.11287953,0.001312196,-0.003761768,0.001033127,0.068117023,-0.005377806,-0.014401736,0.388111072,-1.448542563,0.395139242
-0.918716967,-0.378440648,-0.11287953,0.001312196,-0.003761768,0.001033127,0.068117023,-0.005377806,-0.014401736,0.388111072,-1.448542563,0.395139242
-0.918716967,-0.378440648,-0.11287953,0.001312196,-0.003761768,0.001033127,0.068117023,-0.005377806,-0.014401736,0.388111072,-1.448542563,0.395139242
-0.918716967,-0.378440648,-0.11287953,0.001312196,-0.003761768,0.001033127,0.068117023,-0.005377806,-0.014401736,0.388111072,-1.448542563,0.395139242
-0.918716967,-0.378440648,-0.11287953,0.001312196,-0.003761768,0.001033127,0.068117023,-0.005377806,-0.014401736,0.388111072,-1.448542563,0.395139242
-0.918716967,-0.378440648,-0.11287953,0.001312196,-0.003761768,0.001033127,0.068117023,-0.005377806,-0.014401736,0.388111072,-1.448542563,0.395139242
-0.918716967,-0.378440648,-0.11287953,0.001312196,-0.003761768,0.001033127,0.068117023,-0.005377806,-0.014401736,0.388111072,-1.448542563,0.395139242
-0.918716967,-0.378440648,-0.11287953,0.001312196,-0.003761768,0.001033127,0.068117023,-0.005377806,-0.014401736,0.388111072,-1.448542563,0.395139242
-0.918716967,-0.378440648,-0.11287953,0.001312196,-0.003761768,0.001033127,0.068117023,-0.005377806,-0.014401736,0.388111072,-1.448542563,0.395139242
-0.918716967,-0.378440648,-0.11287953,0.001312196,-0.003761768,0.001033127,0.068117023,-0.005377806,-0.014401736,0.388111072,-1.448542563,0.395139242
-0.918716967,-0.378440648,-0.11287953,0.001312196,-0.003761768,0.001033127,0.068117023,-0.005377806,-0.014401736,0.388111072,-1.448542563,0.395139242
-0.915881932,-0.38455528,-0.115228288,0.009753466,0.00630489,-0.000127614,-0.024215221,-0.049161941,0.013331145,0.394725993,-1.4456426,0.394633343
-0.915881932,-0.38455528,-0.115228288,0.009753466,0.00630489,-0.000127614,-0.024215221,-0.049161941,0.013331145,0.394725993,-1.4456426,0.394633343
-0.915881932,-0.38455528,-0.115228288,0.009753466,0.00630489,-0.000127614,-0.024215221,-0.049161941,0.013331145,0.394725993,-1.4456426,0.394633343
-0.915881932,-0.38455528,-0.115228288,0.009753466,0.00630489,-0.000127614,-0.024215221,-0.049161941,0.013331145,0.394725993,-1.4456426,0.394633343
-0.915881932,-0.38455528,-0.115228288,0.009753466,0.00630489,-0.000127614,-0.024215221,-0.049161941,0.013331145,0.394725993,-1.4456426,0.394633343
-0.915881932,-0.38455528,-0.115228288,0.009753466,0.00630489,-0.000127614,-0.024215221,-0.049161941,0.013331145,0.394725993,-1.4456426,0.394633343
-0.915881932,-0.38455528,-0.115228288,0.009753466,0.00630489,-0.000127614,-0.024215221,-0.049161941,0.013331145,0.394725993,-1.4456426,0.394633343
-0.915881932,-0.38455528,-0.115228288,0.009753466,0.00630489,-0.000127614,-0.024215221,-0.049161941,0.013331145,0.394725993,-1.4456426,0.394633343
-0.915881932,-0.38455528,-0.115228288,0.009753466,0.00630489,-0.000127614,-0.024215221,-0.049161941,0.013331145,0.394725993,-1.4456426,0.394633343
-0.915881932,-0.38455528,-0.115228288,0.009753466,0.00630489,-0.000127614,-0.024215221,-0.049161941,0.013331145,0.394725993,-1.4456426,0.394633343
-0.915881932,-0.38455528,-0.115228288,0.009753466,0.00630489,-0.000127614,-0.024215221,-0.049161941,0.013331145,0.394725993,-1.4456426,0.394633343
-0.917833149,-0.380470693,-0.11324577,-0.001477301,-0.009680897,-0.000356972,-0.01122022,-0.016689196,0.018267207,0.390305221,-1.448032947,0.386076931
-0.917833149,-0.380470693,-0.11324577,-0.001477301,-0.009680897,-0.000356972,-0.01122022,-0.016689196,0.018267207,0.390305221,-1.448032947,0.386076931
-0.917833149,-0.380470693,-0.11324577,-0.001477301,-0.009680897,-0.000356972,-0.01122022,-0.016689196,0.018267207,0.390305221,-1.448032947,0.386076931
-0.917833149,-0.380470693,-0.11324577,-0.001477301,-0.009680897,-0.000356972,-0.01122022,-0.016689196,0.018267207,0.390305221,-1.448032947,0.386076931
-0.917833149,-0.380470693,-0.11324577,-0.001477301,-0.009680897,-0.000356972,-0.01122022,-0.016689196,0.018267207,0.390305221,-1.448032947,0.386076931
-0.917833149,-0.380470693,-0.11324577,-0.001477301,-0.009680897,-0.000356972,-0.01122022,-0.016689196,0.018267207,0.390305221,-1.448032947,0.386076931
-0.918246508,-0.379467189,-0.113261357,0.011951983,-0.007891923,0.005884051,-0.058904052,-0.022481292,0.034355629,0.389220332,-1.448070942,0.384884125
-0.918246508,-0.379467189,-0.113261357,0.011951983,-0.007891923,0.005884051,-0.058904052,-0.022481292,0.034355629,0.389220332,-1.448070942,0.384884125
-0.918246508,-0.379467189,-0.113261357,0.011951983,-0.007891923,0.005884051,-0.058904052,-0.022481292,0.034355629,0.389220332,-1.448070942,0.384884125
-0.918246508,-0.379467189,-0.113261357,0.011951983,-0.007891923,0.005884051,-0.058904052,-0.022481292,0.034355629,0.389220332,-1.448070942,0.384884125
-0.918246508,-0.379467189,-0.113261357,0.011951983,-0.007891923,0.005884051,-0.058904052,-0.022481292,0.034355629,0.389220332,-1.448070942,0.384884125
-0.918246508,-0.379467189,-0.113261357,0.011951983,-0.007891923,0.005884051,-0.058904052,-0.022481292,0.034355629,0.389220332,-1.448070942,0.384884125
-0.918246508,-0.379467189,-0.113261357,0.011951983,-0.007891923,0.005884051,-0.058904052,-0.022481292,0.034355629,0.389220332,-1.448070942,0.384884125
-0.918246508,-0.379467189,-0.113261357,0.011951983,-0.007891923,0.005884051,-0.058904052,-0.022481292,0.034355629,0.389220332,-1.448070942,0.384884125
-0.918246508,-0.379467189,-0.113261357,0.011951983,-0.007891923,0.005884051,-0.058904052,-0.022481292,0.034355629,0.389220332,-1.448070942,0.384884125
-0.918246508,-0.379467189,-0.113261357,0.011951983,-0.007891923,0.005884051,-0.058904052,-0.022481292,0.034355629,0.389220332,-1.448070942,0.384884125
-0.918246508,-0.379467189,-0.113261357,0.011951983,-0.007891923,0.005884051,-0.058904052,-0.022481292,0.034355629,0.389220332,-1.448070942,0.384884125
-0.918246508,-0.379467189,-0.113261357,0.011951983,-0.007891923,0.005884051,-0.058904052,-0.022481292,0.034355629,0.389220332,-1.448070942,0.384884125
-0.918559968,-0.378907174,-0.112591647,-1.76E-05,0.02015835,0.016612291,-0.040321343,-0.044134703,0.011175903,0.388615144,-1.44883063,0.382410562
-0.918559968,-0.378907174,-0.112591647,-1.76E-05,0.02015835,0.016612291,-0.040321343,-0.044134703,0.011175903,0.388615144,-1.44883063,0.382410562
-0.918559968,-0.378907174,-0.112591647,-1.76E-05,0.02015835,0.016612291,-0.040321343,-0.044134703,0.011175903,0.388615144,-1.44883063,0.382410562
-0.918559968,-0.378907174,-0.112591647,-1.76E-05,0.02015835,0.016612291,-0.040321343,-0.044134703,0.011175903,0.388615144,-1.44883063,0.382410562
-0.918559968,-0.378907174,-0.112591647,-1.76E-05,0.02015835,0.016612291,-0.040321343,-0.044134703,0.011175903,0.388615144,-1.44883063,0.382410562
-0.918559968,-0.378907174,-0.112591647,-1.76E-05,0.02015835,0.016612291,-0.040321343,-0.044134703,0.011175903,0.388615144,-1.44883063,0.382410562
-0.918559968,-0.378907174,-0.112591647,-1.76E-05,0.02015835,0.016612291,-0.040321343,-0.044134703,0.011175903,0.388615144,-1.44883063,0.382410562
-0.918559968,-0.378907174,-0.112591647,-1.76E-05,0.02015835,0.016612291,-0.040321343,-0.044134703,0.011175903,0.388615144,-1.44883063,0.382410562
-0.918559968,-0.378907174,-0.112591647,-1.76E-05,0.02015835,0.016612291,-0.040321343,-0.044134703,0.011175903,0.388615144,-1.44883063,0.382410562
-0.918551683,-0.379233956,-0.111553721,-0.012461543,0.00249517,0.009806395,0.029482573,-0.003360897,0.020369668,0.388968278,-1.449942931,0.382717646
-0.918551683,-0.379233956,-0.111553721,-0.012461543,0.00249517,0.009806395,0.029482573,-0.003360897,0.020369668,0.388968278,-1.449942931,0.382717646
-0.918551683,-0.379233956,-0.111553721,-0.012461543,0.00249517,0.009806395,0.029482573,-0.003360897,0.020369668,0.388968278,-1.449942931,0.382717646
-0.918551683,-0.379233956,-0.111553721,-0.012461543,0.00249517,0.009806395,0.029482573,-0.003360897,0.020369668,0.388968278,-1.449942931,0.382717646
-0.918551683,-0.379233956,-0.111553721,-0.012461543,0.00249517,0.009806395,0.029482573,-0.003360897,0.020369668,0.388968278,-1.449942931,0.382717646
-0.918551683,-0.379233956,-0.111553721,-0.012461543,0.00249517,0.009806395,0.029482573,-0.003360897,0.020369668,0.388968278,-1.449942931,0.382717646
-0.918551683,-0.379233956,-0.111553721,-0.012461543,0.00249517,0.009806395,0.029482573,-0.003360897,0.020369668,0.388968278,-1.449942931,0.382717646
-0.918551683,-0.379233956,-0.111553721,-0.012461543,0.00249517,0.009806395,0.029482573,-0.003360897,0.020369668,0.388968278,-1.449942931,0.382717646
-0.918551683,-0.379233956,-0.111553721,-0.012461543,0.00249517,0.009806395,0.029482573,-0.003360897,0.020369668,0.388968278,-1.449942931,0.382717646
-0.918551683,-0.379233956,-0.111553721,-0.012461543,0.00249517,0.009806395,0.029482573,-0.003360897,0.020369668,0.388968278,-1.449942931,0.382717646
-0.918551683,-0.379233956,-0.111553721,-0.012461543,0.00249517,0.009806395,0.029482573,-0.003360897,0.020369668,0.388968278,-1.449942931,0.382717646
-0.918551683,-0.379233956,-0.111553721,-0.012461543,0.00249517,0.009806395,0.029482573,-0.003360897,0.020369668,0.388968278,-1.449942931,0.382717646
-0.91910553,-0.378028184,-0.111086071,-0.009695053,-0.021201968,0.004059076,0.000434345,0.022745259,0.04167895,0.387665492,-1.450516501,0.383538309
-0.91910553,-0.378028184,-0.111086071,-0.009695053,-0.021201968,0.004059076,0.000434345,0.022745259,0.04167895,0.387665492,-1.450516501,0.383538309
-0.91910553,-0.378028184,-0.111086071,-0.009695053,-0.021201968,0.004059076,0.000434345,0.022745259,0.04167895,0.387665492,-1.450516501,0.383538309
-0.91910553,-0.378028184,-0.111086071,-0.009695053,-0.021201968,0.004059076,0.000434345,0.022745259,0.04167895,0.387665492,-1.450516501,0.383538309
-0.91910553,-0.378028184,-0.111086071,-0.009695053,-0.021201968,0.004059076,0.000434345,0.022745259,0.04167895,0.387665492,-1.450516501,0.383538309
-0.91910553,-0.378028184,-0.111086071,-0.009695053,-0.021201968,0.004059076,0.000434345,0.022745259,0.04167895,0.387665492,-1.450516501,0.383538309
-0.91910553,-0.378028184,-0.111086071,-0.009695053,-0.021201968,0.004059076,0.000434345,0.022745259,0.04167895,0.387665492,-1.450516501,0.383538309
-0.91910553,-0.378028184,-0.111086071,-0.009695053,-0.021201968,0.004059076,0.000434345,0.022745259,0.04167895,0.387665492,-1.450516501,0.383538309
-0.91910553,-0.378028184,-0.111086071,-0.009695053,-0.021201968,0.004059076,0.000434345,0.022745259,0.04167895,0.387665492,-1.450516501,0.383538309
-0.91910553,-0.378028184,-0.111086071,-0.009695053,-0.021201968,0.004059076,0.000434345,0.022745259,0.04167895,0.387665492,-1.450516501,0.383538309
-0.91910553,-0.378028184,-0.111086071,-0.009695053,-0.021201968,0.004059076,0.000434345,0.022745259,0.04167895,0.387665492,-1.450516501,0.383538309
-0.91910553,-0.378028184,-0.111086071,-0.009695053,-0.021201968,0.004059076,0.000434345,0.022745259,0.04167895,0.387665492,-1.450516501,0.383538309
-0.91910553,-0.378028184,-0.111086071,-0.009695053,-0.021201968,0.004059076,0.000434345,0.022745259,0.04167895,0.387665492,-1.450516501,0.383538309
-0.919869184,-0.376472056,-0.110043459,0.000910938,0.003914446,0.009363711,0.099480525,0.034528513,0.030145969,0.38598521,-1.451732691,0.386493405
-0.919869184,-0.376472056,-0.110043459,0.000910938,0.003914446,0.009363711,0.099480525,0.034528513,0.030145969,0.38598521,-1.451732691,0.386493405
-0.919869184,-0.376472056,-0.110043459,0.000910938,0.003914446,0.009363711,0.099480525,0.034528513,0.030145969,0.38598521,-1.451732691,0.386493405
-0.919869184,-0.376472056,-0.110043459,0.000910938,0.003914446,0.009363711,0.099480525,0.034528513,0.030145969,0.38598521,-1.451732691,0.386493405
-0.919869184,-0.376472056,-0.110043459,0.000910938,0.003914446,0.009363711,0.099480525,0.034528513,0.030145969,0.38598521,-1.451732691,0.386493405
-0.919869184,-0.376472056,-0.110043459,0.000910938,0.003914446,0.009363711,0.099480525,0.034528513,0.030145969,0.38598521,-1.451732691,0.386493405
-0.919869184,-0.376472056,-0.110043459,0.000910938,0.003914446,0.009363711,0.099480525,0.034528513,0.030145969,0.38598521,-1.451732691,0.386493405
-0.919869184,-0.376472056,-0.110043459,0.000910938,0.003914446,0.009363711,0.099480525,0.034528513,0.030145969,0.38598521,-1.451732691,0.386493405
-0.919869184,-0.376472056,-0.110043459,0.000910938,0.003914446,0.009363711,0.099480525,0.034528513,0.030145969,0.38598521,-1.451732691,0.386493405
-0.919869184,-0.376472056,-0.110043459,0.000910938,0.003914446,0.009363711,0.099480525,0.034528513,0.030145969,0.38598521,-1.451732691,0.386493405
-0.919869184,-0.376472056,-0.110043459,0.000910938,0.003914446,0.009363711,0.099480525,0.034528513,0.030145969,0.38598521,-1.451732691,0.386493405
-0.919869184,-0.376472056,-0.110043459,0.000910938,0.003914446,0.009363711,0.099480525,0.034528513,0.030145969,0.38598521,-1.451732691,0.386493405
-0.919869184,-0.376472056,-0.110043459,0.000910938,0.003914446,0.009363711,0.099480525,0.034528513,0.030145969,0.38598521,-1.451732691,0.386493405
-0.919869184,-0.376472056,-0.110043459,0.000910938,0.003914446,0.009363711,0.099480525,0.034528513,0.030145969,0.38598521,-1.451732691,0.386493405
-0.919869184,-0.376472056,-0.110043459,0.000910938,0.003914446,0.009363711,0.099480525,0.034528513,0.030145969,0.38598521,-1.451732691,0.386493405
-0.920984447,-0.373980373,-0.109207481,-0.003573298,0.006504118,-0.006884158,-0.097240247,-0.026395425,0.007765617,0.383297137,-1.452770528,0.387098337
-0.920984447,-0.373980373,-0.109207481,-0.003573298,0.006504118,-0.006884158,-0.097240247,-0.026395425,0.007765617,0.383297137,-1.452770528,0.387098337
-0.920984447,-0.373980373,-0.109207481,-0.003573298,0.006504118,-0.006884158,-0.097240247,-0.026395425,0.007765617,0.383297137,-1.452770528,0.387098337
-0.920984447,-0.373980373,-0.109207481,-0.003573298,0.006504118,-0.006884158,-0.097240247,-0.026395425,0.007765617,0.383297137,-1.452770528,0.387098337
-0.920984447,-0.373980373,-0.109207481,-0.003573298,0.006504118,-0.006884158,-0.097240247,-0.026395425,0.007765617,0.383297137,-1.452770528,0.387098337
-0.920984447,-0.373980373,-0.109207481,-0.003573298,0.006504118,-0.006884158,-0.097240247,-0.026395425,0.007765617,0.383297137,-1.452770528,0.387098337
-0.920927525,-0.373769253,-0.110405065,1.67E-06,0.01131323,0.004490852,-0.100379504,-0.011682247,0.00565959,0.383069505,-1.451481125,0.383219324
-0.920927525,-0.373769253,-0.110405065,1.67E-06,0.01131323,0.004490852,-0.100379504,-0.011682247,0.00565959,0.383069505,-1.451481125,0.383219324
-0.920927525,-0.373769253,-0.110405065,1.67E-06,0.01131323,0.004490852,-0.100379504,-0.011682247,0.00565959,0.383069505,-1.451481125,0.383219324
-0.920927525,-0.373769253,-0.110405065,1.67E-06,0.01131323,0.004490852,-0.100379504,-0.011682247,0.00565959,0.383069505,-1.451481125,0.383219324
-0.920927525,-0.373769253,-0.110405065,1.67E-06,0.01131323,0.004490852,-0.100379504,-0.011682247,0.00565959,0.383069505,-1.451481125,0.383219324
-0.920927525,-0.373769253,-0.110405065,1.67E-06,0.01131323,0.004490852,-0.100379504,-0.011682247,0.00565959,0.383069505,-1.451481125,0.383219324
-0.920927525,-0.373769253,-0.110405065,1.67E-06,0.01131323,0.004490852,-0.100379504,-0.011682247,0.00565959,0.383069505,-1.451481125,0.383219324
-0.920927525,-0.373769253,-0.110405065,1.67E-06,0.01131323,0.004490852,-0.100379504,-0.011682247,0.00565959,0.383069505,-1.451481125,0.383219324
-0.920927525,-0.373769253,-0.110405065,1.67E-06,0.01131323,0.004490852,-0.100379504,-0.011682247,0.00565959,0.383069505,-1.451481125,0.383219324
-0.921090722,-0.372929245,-0.111872956,0.003750443,0.014608264,0.001961172,-0.076816157,-0.006852387,0.01217757,0.382164018,-1.449931289,0.378873174
-0.921090722,-0.372929245,-0.111872956,0.003750443,0.014608264,0.001961172,-0.076816157,-0.006852387,0.01217757,0.382164018,-1.449931289,0.378873174
-0.921090722,-0.372929245,-0.111872956,0.003750443,0.014608264,0.001961172,-0.076816157,-0.006852387,0.01217757,0.382164018,-1.449931289,0.378873174
-0.921090722,-0.372929245,-0.111872956,0.003750443,0.014608264,0.001961172,-0.076816157,-0.006852387,0.01217757,0.382164018,-1.449931289,0.378873174
-0.921090722,-0.372929245,-0.111872956,0.003750443,0.014608264,0.001961172,-0.076816157,-0.006852387,0.01217757,0.382164018,-1.449931289,0.378873174
-0.921090722,-0.372929245,-0.111872956,0.003750443,0.014608264,0.001961172,-0.076816157,-0.006852387,0.01217757,0.382164018,-1.449931289,0.378873174
-0.921090722,-0.372929245,-0.111872956,0.003750443,0.014608264,0.001961172,-0.076816157,-0.006852387,0.01217757,0.382164018,-1.449931289,0.378873174
-0.921090722,-0.372929245,-0.111872956,0.003750443,0.014608264,0.001961172,-0.076816157,-0.006852387,0.01217757,0.382164018,-1.449931289,0.378873174
-0.921090722,-0.372929245,-0.111872956,0.003750443,0.014608264,0.001961172,-0.076816157,-0.006852387,0.01217757,0.382164018,-1.449931289,0.378873174
-0.921090722,-0.372929245,-0.111872956,0.003750443,0.014608264,0.001961172,-0.076816157,-0.006852387,0.01217757,0.382164018,-1.449931289,0.378873174
-0.921090722,-0.372929245,-0.111872956,0.003750443,0.014608264,0.001961172,-0.076816157,-0.006852387,0.01217757,0.382164018,-1.449931289,0.378873174
-0.921090722,-0.372929245,-0.111872956,0.003750443,0.014608264,0.001961172,-0.076816157,-0.006852387,0.01217757,0.382164018,-1.449931289,0.378873174
-0.920805275,-0.372908801,-0.114266664,0.006959975,-0.001159012,0.009343803,0.070636988,0.052821293,-0.005775171,0.38214198,-1.447333216,0.381941276
-0.920805275,-0.372908801,-0.114266664,0.006959975,-0.001159012,0.009343803,0.070636988,0.052821293,-0.005775171,0.38214198,-1.447333216,0.381941276
-0.920805275,-0.372908801,-0.114266664,0.006959975,-0.001159012,0.009343803,0.070636988,0.052821293,-0.005775171,0.38214198,-1.447333216,0.381941276
-0.920805275,-0.372908801,-0.114266664,0.006959975,-0.001159012,0.009343803,0.070636988,0.052821293,-0.005775171,0.38214198,-1.447333216,0.381941276
-0.920512259,-0.37334615,-0.115195572,0.004668474,-0.012043506,-0.011089921,0.020282378,0.039901488,-0.026786821,0.38261338,-1.446300639,0.383659746
-0.920512259,-0.37334615,-0.115195572,0.004668474,-0.012043506,-0.011089921,0.020282378,0.039901488,-0.026786821,0.38261338,-1.446300639,0.383659746
-0.920512259,-0.37334615,-0.115195572,0.004668474,-0.012043506,-0.011089921,0.020282378,0.039901488,-0.026786821,0.38261338,-1.446300639,0.383659746
-0.920512259,-0.37334615,-0.115195572,0.004668474,-0.012043506,-0.011089921,0.020282378,0.039901488,-0.026786821,0.38261338,-1.446300639,0.383659746
-0.920512259,-0.37334615,-0.115195572,0.004668474,-0.012043506,-0.011089921,0.020282378,0.039901488,-0.026786821,0.38261338,-1.446300639,0.383659746
-0.920512259,-0.37334615,-0.115195572,0.004668474,-0.012043506,-0.011089921,0.020282378,0.039901488,-0.026786821,0.38261338,-1.446300639,0.383659746
-0.920512259,-0.37334615,-0.115195572,0.004668474,-0.012043506,-0.011089921,0.020282378,0.039901488,-0.026786821,0.38261338,-1.446300639,0.383659746
-0.920512259,-0.37334615,-0.115195572,0.004668474,-0.012043506,-0.011089921,0.020282378,0.039901488,-0.026786821,0.38261338,-1.446300639,0.383659746
-0.920512259,-0.37334615,-0.115195572,0.004668474,-0.012043506,-0.011089921,0.020282378,0.039901488,-0.026786821,0.38261338,-1.446300639,0.383659746
-0.920512259,-0.37334615,-0.115195572,0.004668474,-0.012043506,-0.011089921,0.020282378,0.039901488,-0.026786821,0.38261338,-1.446300639,0.383659746
-0.91969794,-0.375018567,-0.116261885,0.003198147,0.005849093,-0.011702299,0.048324041,0.043503352,-0.051217169,0.38441681,-1.445050194,0.384790858
-0.91969794,-0.375018567,-0.116261885,0.003198147,0.005849093,-0.011702299,0.048324041,0.043503352,-0.051217169,0.38441681,-1.445050194,0.384790858
-0.91969794,-0.375018567,-0.116261885,0.003198147,0.005849093,-0.011702299,0.048324041,0.043503352,-0.051217169,0.38441681,-1.445050194,0.384790858
-0.91969794,-0.375018567,-0.116261885,0.003198147,0.005849093,-0.011702299,0.048324041,0.043503352,-0.051217169,0.38441681,-1.445050194,0.384790858
-0.91969794,-0.375018567,-0.116261885,0.003198147,0.005849093,-0.011702299,0.048324041,0.043503352,-0.051217169,0.38441681,-1.445050194,0.384790858
-0.91969794,-0.375018567,-0.116261885,0.003198147,0.005849093,-0.011702299,0.048324041,0.043503352,-0.051217169,0.38441681,-1.445050194,0.384790858
-0.91969794,-0.375018567,-0.116261885,0.003198147,0.005849093,-0.011702299,0.048324041,0.043503352,-0.051217169,0.38441681,-1.445050194,0.384790858
-0.91969794,-0.375018567,-0.116261885,0.003198147,0.005849093,-0.011702299,0.048324041,0.043503352,-0.051217169,0.38441681,-1.445050194,0.384790858
-0.91969794,-0.375018567,-0.116261885,0.003198147,0.005849093,-0.011702299,0.048324041,0.043503352,-0.051217169,0.38441681,-1.445050194,0.384790858
-0.91969794,-0.375018567,-0.116261885,0.003198147,0.005849093,-0.011702299,0.048324041,0.043503352,-0.051217169,0.38441681,-1.445050194,0.384790858
-0.91969794,-0.375018567,-0.116261885,0.003198147,0.005849093,-0.011702299,0.048324041,0.043503352,-0.051217169,0.38441681,-1.445050194,0.384790858
-0.91969794,-0.375018567,-0.116261885,0.003198147,0.005849093,-0.011702299,0.048324041,0.043503352,-0.051217169,0.38441681,-1.445050194,0.384790858
-0.91969794,-0.375018567,-0.116261885,0.003198147,0.005849093,-0.011702299,0.048324041,0.043503352,-0.051217169,0.38441681,-1.445050194,0.384790858
-0.91969794,-0.375018567,-0.116261885,0.003198147,0.005849093,-0.011702299,0.048324041,0.043503352,-0.051217169,0.38441681,-1.445050194,0.384790858
-0.91969794,-0.375018567,-0.116261885,0.003198147,0.005849093,-0.011702299,0.048324041,0.043503352,-0.051217169,0.38441681,-1.445050194,0.384790858
-0.91969794,-0.375018567,-0.116261885,0.003198147,0.005849093,-0.011702299,0.048324041,0.043503352,-0.051217169,0.38441681,-1.445050194,0.384790858
-0.91969794,-0.375018567,-0.116261885,0.003198147,0.005849093,-0.011702299,0.048324041,0.043503352,-0.051217169,0.38441681,-1.445050194,0.384790858
-0.918869793,-0.376859307,-0.116855912,-0.002222657,-0.004288226,-0.008148253,0.000446289,0.028490897,-0.022839749,0.386403269,-1.444301822,0.385775215
-0.918869793,-0.376859307,-0.116855912,-0.002222657,-0.004288226,-0.008148253,0.000446289,0.028490897,-0.022839749,0.386403269,-1.444301822,0.385775215
-0.918869793,-0.376859307,-0.116855912,-0.002222657,-0.004288226,-0.008148253,0.000446289,0.028490897,-0.022839749,0.386403269,-1.444301822,0.385775215
-0.918869793,-0.376859307,-0.116855912,-0.002222657,-0.004288226,-0.008148253,0.000446289,0.028490897,-0.022839749,0.386403269,-1.444301822,0.385775215
-0.918869793,-0.376859307,-0.116855912,-0.002222657,-0.004288226,-0.008148253,0.000446289,0.028490897,-0.022839749,0.386403269,-1.444301822,0.385775215
-0.918869793,-0.376859307,-0.116855912,-0.002222657,-0.004288226,-0.008148253,0.000446289,0.028490897,-0.022839749,0.386403269,-1.444301822,0.385775215
-0.918869793,-0.376859307,-0.116855912,-0.002222657,-0.004288226,-0.008148253,0.000446289,0.028490897,-0.022839749,0.386403269,-1.444301822,0.385775215
-0.918869793,-0.376859307,-0.116855912,-0.002222657,-0.004288226,-0.008148253,0.000446289,0.028490897,-0.022839749,0.386403269,-1.444301822,0.385775215
-0.918869793,-0.376859307,-0.116855912,-0.002222657,-0.004288226,-0.008148253,0.000446289,0.028490897,-0.022839749,0.386403269,-1.444301822,0.385775215
-0.918869793,-0.376859307,-0.116855912,-0.002222657,-0.004288226,-0.008148253,0.000446289,0.028490897,-0.022839749,0.386403269,-1.444301822,0.385775215
-0.918584585,-0.37716338,-0.118111052,0.007410347,0.011518776,-0.008556306,-0.002629116,0.016187539,-0.017837213,0.386731559,-1.44291857,0.385357536
-0.918584585,-0.37716338,-0.118111052,0.007410347,0.011518776,-0.008556306,-0.002629116,0.016187539,-0.017837213,0.386731559,-1.44291857,0.385357536
-0.918584585,-0.37716338,-0.118111052,0.007410347,0.011518776,-0.008556306,-0.002629116,0.016187539,-0.017837213,0.386731559,-1.44291857,0.385357536
-0.918584585,-0.37716338,-0.118111052,0.007410347,0.011518776,-0.008556306,-0.002629116,0.016187539,-0.017837213,0.386731559,-1.44291857,0.385357536
-0.918584585,-0.37716338,-0.118111052,0.007410347,0.011518776,-0.008556306,-0.002629116,0.016187539,-0.017837213,0.386731559,-1.44291857,0.385357536
-0.918584585,-0.37716338,-0.118111052,0.007410347,0.011518776,-0.008556306,-0.002629116,0.016187539,-0.017837213,0.386731559,-1.44291857,0.385357536
-0.918584585,-0.37716338,-0.118111052,0.007410347,0.011518776,-0.008556306,-0.002629116,0.016187539,-0.017837213,0.386731559,-1.44291857,0.385357536
-0.918584585,-0.37716338,-0.118111052,0.007410347,0.011518776,-0.008556306,-0.002629116,0.016187539,-0.017837213,0.386731559,-1.44291857,0.385357536
-0.918584585,-0.37716338,-0.118111052,0.007410347,0.011518776,-0.008556306,-0.002629116,0.016187539,-0.017837213,0.386731559,-1.44291857,0.385357536
-0.918046474,-0.378300935,-0.118655488,0.010000288,0.004065633,0.006392479,0.004134967,-0.021075506,-0.035522785,0.387960124,-1.442261086,0.385006656
-0.918046474,-0.378300935,-0.118655488,0.010000288,0.004065633,0.006392479,0.004134967,-0.021075506,-0.035522785,0.387960124,-1.442261086,0.385006656
-0.918046474,-0.378300935,-0.118655488,0.010000288,0.004065633,0.006392479,0.004134967,-0.021075506,-0.035522785,0.387960124,-1.442261086,0.385006656
-0.918046474,-0.378300935,-0.118655488,0.010000288,0.004065633,0.006392479,0.004134967,-0.021075506,-0.035522785,0.387960124,-1.442261086,0.385006656
-0.918046474,-0.378300935,-0.118655488,0.010000288,0.004065633,0.006392479,0.004134967,-0.021075506,-0.035522785,0.387960124,-1.442261086,0.385006656
-0.918046474,-0.378300935,-0.118655488,0.010000288,0.004065633,0.006392479,0.004134967,-0.021075506,-0.035522785,0.387960124,-1.442261086,0.385006656
-0.918046474,-0.378300935,-0.118655488,0.010000288,0.004065633,0.006392479,0.004134967,-0.021075506,-0.035522785,0.387960124,-1.442261086,0.385006656
-0.918046474,-0.378300935,-0.118655488,0.010000288,0.004065633,0.006392479,0.004134967,-0.021075506,-0.035522785,0.387960124,-1.442261086,0.385006656
-0.918046474,-0.378300935,-0.118655488,0.010000288,0.004065633,0.006392479,0.004134967,-0.021075506,-0.035522785,0.387960124,-1.442261086,0.385006656
-0.918046474,-0.378300935,-0.118655488,0.010000288,0.004065633,0.006392479,0.004134967,-0.021075506,-0.035522785,0.387960124,-1.442261086,0.385006656
-0.918046474,-0.378300935,-0.118655488,0.010000288,0.004065633,0.006392479,0.004134967,-0.021075506,-0.035522785,0.387960124,-1.442261086,0.385006656
-0.918046474,-0.378300935,-0.118655488,0.010000288,0.004065633,0.006392479,0.004134967,-0.021075506,-0.035522785,0.387960124,-1.442261086,0.385006656
-0.918046474,-0.378300935,-0.118655488,0.010000288,0.004065633,0.006392479,0.004134967,-0.021075506,-0.035522785,0.387960124,-1.442261086,0.385006656
-0.918046474,-0.378300935,-0.118655488,0.010000288,0.004065633,0.006392479,0.004134967,-0.021075506,-0.035522785,0.387960124,-1.442261086,0.385006656
-0.917680085,-0.379238665,-0.118496947,-0.011820197,-0.014711082,0.004891336,-0.017471712,-0.016821228,-0.026891962,0.388973343,-1.442380258,0.384181574
-0.917680085,-0.379238665,-0.118496947,-0.011820197,-0.014711082,0.004891336,-0.017471712,-0.016821228,-0.026891962,0.388973343,-1.442380258,0.384181574
-0.917680085,-0.379238665,-0.118496947,-0.011820197,-0.014711082,0.004891336,-0.017471712,-0.016821228,-0.026891962,0.388973343,-1.442380258,0.384181574
-0.917680085,-0.379238665,-0.118496947,-0.011820197,-0.014711082,0.004891336,-0.017471712,-0.016821228,-0.026891962,0.388973343,-1.442380258,0.384181574
-0.917680085,-0.379238665,-0.118496947,-0.011820197,-0.014711082,0.004891336,-0.017471712,-0.016821228,-0.026891962,0.388973343,-1.442380258,0.384181574
-0.917680085,-0.379238665,-0.118496947,-0.011820197,-0.014711082,0.004891336,-0.017471712,-0.016821228,-0.026891962,0.388973343,-1.442380258,0.384181574
-0.917680085,-0.379238665,-0.118496947,-0.011820197,-0.014711082,0.004891336,-0.017471712,-0.016821228,-0.026891962,0.388973343,-1.442380258,0.384181574
-0.917680085,-0.379238665,-0.118496947,-0.011820197,-0.014711082,0.004891336,-0.017471712,-0.016821228,-0.026891962,0.388973343,-1.442380258,0.384181574
-0.917680085,-0.379238665,-0.118496947,-0.011820197,-0.014711082,0.004891336,-0.017471712,-0.016821228,-0.026891962,0.388973343,-1.442380258,0.384181574
-0.91732192,-0.37998569,-0.11887528,0.003629982,-0.01153779,-0.004191041,-0.006961427,0.015076362,-0.028663283,0.389780834,-1.441925028,0.383525115
-0.91732192,-0.37998569,-0.11887528,0.003629982,-0.01153779,-0.004191041,-0.006961427,0.015076362,-0.028663283,0.389780834,-1.441925028,0.383525115
-0.91732192,-0.37998569,-0.11887528,0.003629982,-0.01153779,-0.004191041,-0.006961427,0.015076362,-0.028663283,0.389780834,-1.441925028,0.383525115
-0.91732192,-0.37998569,-0.11887528,0.003629982,-0.01153779,-0.004191041,-0.006961427,0.015076362,-0.028663283,0.389780834,-1.441925028,0.383525115
-0.91732192,-0.37998569,-0.11887528,0.003629982,-0.01153779,-0.004191041,-0.006961427,0.015076362,-0.028663283,0.389780834,-1.441925028,0.383525115
-0.91732192,-0.37998569,-0.11887528,0.003629982,-0.01153779,-0.004191041,-0.006961427,0.015076362,-0.028663283,0.389780834,-1.441925028,0.383525115
-0.91732192,-0.37998569,-0.11887528,0.003629982,-0.01153779,-0.004191041,-0.006961427,0.015076362,-0.028663283,0.389780834,-1.441925028,0.383525115
-0.91732192,-0.37998569,-0.11887528,0.003629982,-0.01153779,-0.004191041,-0.006961427,0.015076362,-0.028663283,0.389780834,-1.441925028,0.383525115
-0.91732192,-0.37998569,-0.11887528,0.003629982,-0.01153779,-0.004191041,-0.006961427,0.015076362,-0.028663283,0.389780834,-1.441925028,0.383525115
-0.916911304,-0.380871177,-0.119208775,-0.000366211,-0.008836448,0.005160093,-0.032007512,0.016361758,-0.012417415,0.390738293,-1.44151027,0.382707157
-0.916911304,-0.380871177,-0.119208775,-0.000366211,-0.008836448,0.005160093,-0.032007512,0.016361758,-0.012417415,0.390738293,-1.44151027,0.382707157
-0.916911304,-0.380871177,-0.119208775,-0.000366211,-0.008836448,0.005160093,-0.032007512,0.016361758,-0.012417415,0.390738293,-1.44151027,0.382707157
-0.916911304,-0.380871177,-0.119208775,-0.000366211,-0.008836448,0.005160093,-0.032007512,0.016361758,-0.012417415,0.390738293,-1.44151027,0.382707157
-0.916911304,-0.380871177,-0.119208775,-0.000366211,-0.008836448,0.005160093,-0.032007512,0.016361758,-0.012417415,0.390738293,-1.44151027,0.382707157
-0.916911304,-0.380871177,-0.119208775,-0.000366211,-0.008836448,0.005160093,-0.032007512,0.016361758,-0.012417415,0.390738293,-1.44151027,0.382707157
-0.916911304,-0.380871177,-0.119208775,-0.000366211,-0.008836448,0.005160093,-0.032007512,0.016361758,-0.012417415,0.390738293,-1.44151027,0.382707157
-0.916911304,-0.380871177,-0.119208775,-0.000366211,-0.008836448,0.005160093,-0.032007512,0.016361758,-0.012417415,0.390738293,-1.44151027,0.382707157
-0.916911304,-0.380871177,-0.119208775,-0.000366211,-0.008836448,0.005160093,-0.032007512,0.016361758,-0.012417415,0.390738293,-1.44151027,0.382707157
-0.916911304,-0.380871177,-0.119208775,-0.000366211,-0.008836448,0.005160093,-0.032007512,0.016361758,-0.012417415,0.390738293,-1.44151027,0.382707157
-0.916911304,-0.380871177,-0.119208775,-0.000366211,-0.008836448,0.005160093,-0.032007512,0.016361758,-0.012417415,0.390738293,-1.44151027,0.382707157
-0.916911304,-0.380871177,-0.119208775,-0.000366211,-0.008836448,0.005160093,-0.032007512,0.016361758,-0.012417415,0.390738293,-1.44151027,0.382707157
-0.916620314,-0.381302088,-0.120067015,0.006193757,0.006044507,0.017722189,0.022028374,0.016224269,-0.001515712,0.391204401,-1.440549057,0.382185842
-0.916620314,-0.381302088,-0.120067015,0.006193757,0.006044507,0.017722189,0.022028374,0.016224269,-0.001515712,0.391204401,-1.440549057,0.382185842
-0.916620314,-0.381302088,-0.120067015,0.006193757,0.006044507,0.017722189,0.022028374,0.016224269,-0.001515712,0.391204401,-1.440549057,0.382185842
-0.916620314,-0.381302088,-0.120067015,0.006193757,0.006044507,0.017722189,0.022028374,0.016224269,-0.001515712,0.391204401,-1.440549057,0.382185842
-0.916620314,-0.381302088,-0.120067015,0.006193757,0.006044507,0.017722189,0.022028374,0.016224269,-0.001515712,0.391204401,-1.440549057,0.382185842
-0.916620314,-0.381302088,-0.120067015,0.006193757,0.006044507,0.017722189,0.022028374,0.016224269,-0.001515712,0.391204401,-1.440549057,0.382185842
-0.916620314,-0.381302088,-0.120067015,0.006193757,0.006044507,0.017722189,0.022028374,0.016224269,-0.001515712,0.391204401,-1.440549057,0.382185842
-0.916620314,-0.381302088,-0.120067015,0.006193757,0.006044507,0.017722189,0.022028374,0.016224269,-0.001515712,0.391204401,-1.440549057,0.382185842
-0.916620314,-0.381302088,-0.120067015,0.006193757,0.006044507,0.017722189,0.022028374,0.016224269,-0.001515712,0.391204401,-1.440549057,0.382185842
-0.915867746,-0.383597642,-0.118488245,0.002421021,0.002862602,-0.014298916,0.067865759,0.014910736,0.003255288,0.39368881,-1.442138292,0.389397363
-0.915867746,-0.383597642,-0.118488245,0.002421021,0.002862602,-0.014298916,0.067865759,0.014910736,0.003255288,0.39368881,-1.442138292,0.389397363
-0.915867746,-0.383597642,-0.118488245,0.002421021,0.002862602,-0.014298916,0.067865759,0.014910736,0.003255288,0.39368881,-1.442138292,0.389397363
-0.915867746,-0.383597642,-0.118488245,0.002421021,0.002862602,-0.014298916,0.067865759,0.014910736,0.003255288,0.39368881,-1.442138292,0.389397363
-0.915867746,-0.383597642,-0.118488245,0.002421021,0.002862602,-0.014298916,0.067865759,0.014910736,0.003255288,0.39368881,-1.442138292,0.389397363
-0.915867746,-0.383597642,-0.118488245,0.002421021,0.002862602,-0.014298916,0.067865759,0.014910736,0.003255288,0.39368881,-1.442138292,0.389397363
-0.915940225,-0.383681387,-0.117652655,-0.012398601,-0.008787483,-0.007505655,0.031089608,0.014143382,0.008567655,0.393779515,-1.443045723,0.391954806
-0.915940225,-0.383681387,-0.117652655,-0.012398601,-0.008787483,-0.007505655,0.031089608,0.014143382,0.008567655,0.393779515,-1.443045723,0.391954806
-0.915940225,-0.383681387,-0.117652655,-0.012398601,-0.008787483,-0.007505655,0.031089608,0.014143382,0.008567655,0.393779515,-1.443045723,0.391954806
-0.915940225,-0.383681387,-0.117652655,-0.012398601,-0.008787483,-0.007505655,0.031089608,0.014143382,0.008567655,0.393779515,-1.443045723,0.391954806
-0.915940225,-0.383681387,-0.117652655,-0.012398601,-0.008787483,-0.007505655,0.031089608,0.014143382,0.008567655,0.393779515,-1.443045723,0.391954806
-0.915940225,-0.383681387,-0.117652655,-0.012398601,-0.008787483,-0.007505655,0.031089608,0.014143382,0.008567655,0.393779515,-1.443045723,0.391954806
-0.915940225,-0.383681387,-0.117652655,-0.012398601,-0.008787483,-0.007505655,0.031089608,0.014143382,0.008567655,0.393779515,-1.443045723,0.391954806
-0.915940225,-0.383681387,-0.117652655,-0.012398601,-0.008787483,-0.007505655,0.031089608,0.014143382,0.008567655,0.393779515,-1.443045723,0.391954806
-0.91599685,-0.383351833,-0.118284062,0.007448614,-0.000709474,-0.01410687,-0.001618553,0.007723168,0.003125432,0.393422652,-1.442375463,0.391929539
-0.91599685,-0.383351833,-0.118284062,0.007448614,-0.000709474,-0.01410687,-0.001618553,0.007723168,0.003125432,0.393422652,-1.442375463,0.391929539
-0.91599685,-0.383351833,-0.118284062,0.007448614,-0.000709474,-0.01410687,-0.001618553,0.007723168,0.003125432,0.393422652,-1.442375463,0.391929539
-0.91599685,-0.383351833,-0.118284062,0.007448614,-0.000709474,-0.01410687,-0.001618553,0.007723168,0.003125432,0.393422652,-1.442375463,0.391929539
-0.91599685,-0.383351833,-0.118284062,0.007448614,-0.000709474,-0.01410687,-0.001618553,0.007723168,0.003125432,0.393422652,-1.442375463,0.391929539
-0.91599685,-0.383351833,-0.118284062,0.007448614,-0.000709474,-0.01410687,-0.001618553,0.007723168,0.003125432,0.393422652,-1.442375463,0.391929539
-0.91599685,-0.383351833,-0.118284062,0.007448614,-0.000709474,-0.01410687,-0.001618553,0.007723168,0.003125432,0.393422652,-1.442375463,0.391929539
-0.91599685,-0.383351833,-0.118284062,0.007448614,-0.000709474,-0.01410687,-0.001618553,0.007723168,0.003125432,0.393422652,-1.442375463,0.391929539
-0.91599685,-0.383351833,-0.118284062,0.007448614,-0.000709474,-0.01410687,-0.001618553,0.007723168,0.003125432,0.393422652,-1.442375463,0.391929539
-0.91599685,-0.383351833,-0.118284062,0.007448614,-0.000709474,-0.01410687,-0.001618553,0.007723168,0.003125432,0.393422652,-1.442375463,0.391929539
-0.91599685,-0.383351833,-0.118284062,0.007448614,-0.000709474,-0.01410687,-0.001618553,0.007723168,0.003125432,0.393422652,-1.442375463,0.391929539
-0.91599685,-0.383351833,-0.118284062,0.007448614,-0.000709474,-0.01410687,-0.001618553,0.007723168,0.003125432,0.393422652,-1.442375463,0.391929539
-0.91599685,-0.383351833,-0.118284062,0.007448614,-0.000709474,-0.01410687,-0.001618553,0.007723168,0.003125432,0.393422652,-1.442375463,0.391929539
-0.91599685,-0.383351833,-0.118284062,0.007448614,-0.000709474,-0.01410687,-0.001618553,0.007723168,0.003125432,0.393422652,-1.442375463,0.391929539
-0.91599685,-0.383351833,-0.118284062,0.007448614,-0.000709474,-0.01410687,-0.001618553,0.007723168,0.003125432,0.393422652,-1.442375463,0.391929539
-0.915889561,-0.38340947,-0.118926466,-0.000928879,0.008549213,0.005380154,-0.000625567,0.011834361,0.002181448,0.393485063,-1.441670759,0.391936066
-0.915889561,-0.38340947,-0.118926466,-0.000928879,0.008549213,0.005380154,-0.000625567,0.011834361,0.002181448,0.393485063,-1.441670759,0.391936066
-0.915889561,-0.38340947,-0.118926466,-0.000928879,0.008549213,0.005380154,-0.000625567,0.011834361,0.002181448,0.393485063,-1.441670759,0.391936066
-0.915889561,-0.38340947,-0.118926466,-0.000928879,0.008549213,0.005380154,-0.000625567,0.011834361,0.002181448,0.393485063,-1.441670759,0.391936066
-0.915889561,-0.38340947,-0.118926466,-0.000928879,0.008549213,0.005380154,-0.000625567,0.011834361,0.002181448,0.393485063,-1.441670759,0.391936066
-0.915889561,-0.38340947,-0.118926466,-0.000928879,0.008549213,0.005380154,-0.000625567,0.011834361,0.002181448,0.393485063,-1.441670759,0.391936066
-0.915889561,-0.38340947,-0.118926466,-0.000928879,0.008549213,0.005380154,-0.000625567,0.011834361,0.002181448,0.393485063,-1.441670759,0.391936066
-0.915889561,-0.38340947,-0.118926466,-0.000928879,0.008549213,0.005380154,-0.000625567,0.011834361,0.002181448,0.393485063,-1.441670759,0.391936066
-0.915889561,-0.38340947,-0.118926466,-0.000928879,0.008549213,0.005380154,-0.000625567,0.011834361,0.002181448,0.393485063,-1.441670759,0.391936066
-0.915889561,-0.38340947,-0.118926466,-0.000928879,0.008549213,0.005380154,-0.000625567,0.011834361,0.002181448,0.393485063,-1.441670759,0.391936066
-0.915889561,-0.38340947,-0.118926466,-0.000928879,0.008549213,0.005380154,-0.000625567,0.011834361,0.002181448,0.393485063,-1.441670759,0.391936066
-0.915889561,-0.38340947,-0.118926466,-0.000928879,0.008549213,0.005380154,-0.000625567,0.011834361,0.002181448,0.393485063,-1.441670759,0.391936066
-0.915889561,-0.38340947,-0.118926466,-0.000928879,0.008549213,0.005380154,-0.000625567,0.011834361,0.002181448,0.393485063,-1.441670759,0.391936066
-0.915889561,-0.38340947,-0.118926466,-0.000928879,0.008549213,0.005380154,-0.000625567,0.011834361,0.002181448,0.393485063,-1.441670759,0.391936066
-0.915889561,-0.38340947,-0.118926466,-0.000928879,0.008549213,0.005380154,-0.000625567,0.011834361,0.002181448,0.393485063,-1.441670759,0.391936066
-0.915684342,-0.383543313,-0.120068751,-0.001484811,0.008850992,0.002142906,0.016101629,0.029302992,0.00104007,0.393629975,-1.440415565,0.392286012
-0.915684342,-0.383543313,-0.120068751,-0.001484811,0.008850992,0.002142906,0.016101629,0.029302992,0.00104007,0.393629975,-1.440415565,0.392286012
-0.915684342,-0.383543313,-0.120068751,-0.001484811,0.008850992,0.002142906,0.016101629,0.029302992,0.00104007,0.393629975,-1.440415565,0.392286012
-0.915558934,-0.383524686,-0.121081345,0.001777291,0.020963103,-0.004809558,0.060287546,0.043115139,-0.007196235,0.393609813,-1.439310779,0.393246178
-0.915558934,-0.383524686,-0.121081345,0.001777291,0.020963103,-0.004809558,0.060287546,0.043115139,-0.007196235,0.393609813,-1.439310779,0.393246178
-0.915558934,-0.383524686,-0.121081345,0.001777291,0.020963103,-0.004809558,0.060287546,0.043115139,-0.007196235,0.393609813,-1.439310779,0.393246178
-0.915558934,-0.383524686,-0.121081345,0.001777291,0.020963103,-0.004809558,0.060287546,0.043115139,-0.007196235,0.393609813,-1.439310779,0.393246178
-0.915558934,-0.383524686,-0.121081345,0.001777291,0.020963103,-0.004809558,0.060287546,0.043115139,-0.007196235,0.393609813,-1.439310779,0.393246178
-0.915558934,-0.383524686,-0.121081345,0.001777291,0.020963103,-0.004809558,0.060287546,0.043115139,-0.007196235,0.393609813,-1.439310779,0.393246178
-0.915558934,-0.383524686,-0.121081345,0.001777291,0.020963103,-0.004809558,0.060287546,0.043115139,-0.007196235,0.393609813,-1.439310779,0.393246178
-0.915558934,-0.383524686,-0.121081345,0.001777291,0.020963103,-0.004809558,0.060287546,0.043115139,-0.007196235,0.393609813,-1.439310779,0.393246178
-0.915558934,-0.383524686,-0.121081345,0.001777291,0.020963103,-0.004809558,0.060287546,0.043115139,-0.007196235,0.393609813,-1.439310779,0.393246178
-0.915196359,-0.384383976,-0.121097088,-0.012623489,-0.001889765,0.010144591,0.116083153,0.053208433,-0.024384063,0.394540425,-1.439242373,0.398104373
-0.915196359,-0.384383976,-0.121097088,-0.012623489,-0.001889765,0.010144591,0.116083153,0.053208433,-0.024384063,0.394540425,-1.439242373,0.398104373
-0.915196359,-0.384383976,-0.121097088,-0.012623489,-0.001889765,0.010144591,0.116083153,0.053208433,-0.024384063,0.394540425,-1.439242373,0.398104373
-0.915196359,-0.384383976,-0.121097088,-0.012623489,-0.001889765,0.010144591,0.116083153,0.053208433,-0.024384063,0.394540425,-1.439242373,0.398104373
-0.915196359,-0.384383976,-0.121097088,-0.012623489,-0.001889765,0.010144591,0.116083153,0.053208433,-0.024384063,0.394540425,-1.439242373,0.398104373
-0.915196359,-0.384383976,-0.121097088,-0.012623489,-0.001889765,0.010144591,0.116083153,0.053208433,-0.024384063,0.394540425,-1.439242373,0.398104373
-0.915196359,-0.384383976,-0.121097088,-0.012623489,-0.001889765,0.010144591,0.116083153,0.053208433,-0.024384063,0.394540425,-1.439242373,0.398104373
-0.915196359,-0.384383976,-0.121097088,-0.012623489,-0.001889765,0.010144591,0.116083153,0.053208433,-0.024384063,0.394540425,-1.439242373,0.398104373
-0.915196359,-0.384383976,-0.121097088,-0.012623489,-0.001889765,0.010144591,0.116083153,0.053208433,-0.024384063,0.394540425,-1.439242373,0.398104373
-0.915196359,-0.384383976,-0.121097088,-0.012623489,-0.001889765,0.010144591,0.116083153,0.053208433,-0.024384063,0.394540425,-1.439242373,0.398104373
-0.915196359,-0.384383976,-0.121097088,-0.012623489,-0.001889765,0.010144591,0.116083153,0.053208433,-0.024384063,0.394540425,-1.439242373,0.398104373
-0.915196359,-0.384383976,-0.121097088,-0.012623489,-0.001889765,0.010144591,0.116083153,0.053208433,-0.024384063,0.394540425,-1.439242373,0.398104373
-0.915196359,-0.384383976,-0.121097088,-0.012623489,-0.001889765,0.010144591,0.116083153,0.053208433,-0.024384063,0.394540425,-1.439242373,0.398104373
-0.915196359,-0.384383976,-0.121097088,-0.012623489,-0.001889765,0.010144591,0.116083153,0.053208433,-0.024384063,0.394540425,-1.439242373,0.398104373
-0.915196359,-0.384383976,-0.121097088,-0.012623489,-0.001889765,0.010144591,0.116083153,0.053208433,-0.024384063,0.394540425,-1.439242373,0.398104373
-0.915196359,-0.384383976,-0.121097088,-0.012623489,-0.001889765,0.010144591,0.116083153,0.053208433,-0.024384063,0.394540425,-1.439242373,0.398104373
-0.915196359,-0.384383976,-0.121097088,-0.012623489,-0.001889765,0.010144591,0.116083153,0.053208433,-0.024384063,0.394540425,-1.439242373,0.398104373
-0.915196359,-0.384383976,-0.121097088,-0.012623489,-0.001889765,0.010144591,0.116083153,0.053208433,-0.024384063,0.394540425,-1.439242373,0.398104373
-0.915196359,-0.384383976,-0.121097088,-0.012623489,-0.001889765,0.010144591,0.116083153,0.053208433,-0.024384063,0.394540425,-1.439242373,0.398104373
-0.915196359,-0.384383976,-0.121097088,-0.012623489,-0.001889765,0.010144591,0.116083153,0.053208433,-0.024384063,0.394540425,-1.439242373,0.398104373
-0.915019631,-0.384489477,-0.122094922,-0.001997411,0.019806772,0.033924341,0.111454435,0.055366717,0.041711282,0.394654724,-1.438145686,0.40213357
-0.915019631,-0.384489477,-0.122094922,-0.001997411,0.019806772,0.033924341,0.111454435,0.055366717,0.041711282,0.394654724,-1.438145686,0.40213357
-0.915019631,-0.384489477,-0.122094922,-0.001997411,0.019806772,0.033924341,0.111454435,0.055366717,0.041711282,0.394654724,-1.438145686,0.40213357
-0.915517926,-0.383987367,-0.119918846,0.009823442,0.057970643,0.027093768,0.309614748,0.043326758,0.02443807,0.394110857,-1.440553107,0.413635854
-0.915517926,-0.383987367,-0.119918846,0.009823442,0.057970643,0.027093768,0.309614748,0.043326758,0.02443807,0.394110857,-1.440553107,0.413635854
-0.915517926,-0.383987367,-0.119918846,0.009823442,0.057970643,0.027093768,0.309614748,0.043326758,0.02443807,0.394110857,-1.440553107,0.413635854
-0.915517926,-0.383987367,-0.119918846,0.009823442,0.057970643,0.027093768,0.309614748,0.043326758,0.02443807,0.394110857,-1.440553107,0.413635854
-0.915517926,-0.383987367,-0.119918846,0.009823442,0.057970643,0.027093768,0.309614748,0.043326758,0.02443807,0.394110857,-1.440553107,0.413635854
-0.915517926,-0.383987367,-0.119918846,0.009823442,0.057970643,0.027093768,0.309614748,0.043326758,0.02443807,0.394110857,-1.440553107,0.413635854
-0.915517926,-0.383987367,-0.119918846,0.009823442,0.057970643,0.027093768,0.309614748,0.043326758,0.02443807,0.394110857,-1.440553107,0.413635854
-0.915517926,-0.383987367,-0.119918846,0.009823442,0.057970643,0.027093768,0.309614748,0.043326758,0.02443807,0.394110857,-1.440553107,0.413635854
-0.915517926,-0.383987367,-0.119918846,0.009823442,0.057970643,0.027093768,0.309614748,0.043326758,0.02443807,0.394110857,-1.440553107,0.413635854
-0.915517926,-0.383987367,-0.119918846,0.009823442,0.057970643,0.027093768,0.309614748,0.043326758,0.02443807,0.394110857,-1.440553107,0.413635854
-0.915517926,-0.383987367,-0.119918846,0.009823442,0.057970643,0.027093768,0.309614748,0.043326758,0.02443807,0.394110857,-1.440553107,0.413635854
-0.915517926,-0.383987367,-0.119918846,0.009823442,0.057970643,0.027093768,0.309614748,0.043326758,0.02443807,0.394110857,-1.440553107,0.413635854
-0.915517926,-0.383987367,-0.119918846,0.009823442,0.057970643,0.027093768,0.309614748,0.043326758,0.02443807,0.394110857,-1.440553107,0.413635854
-0.915517926,-0.383987367,-0.119918846,0.009823442,0.057970643,0.027093768,0.309614748,0.043326758,0.02443807,0.394110857,-1.440553107,0.413635854
-0.915517926,-0.383987367,-0.119918846,0.009823442,0.057970643,0.027093768,0.309614748,0.043326758,0.02443807,0.394110857,-1.440553107,0.413635854
-0.915355384,-0.384644359,-0.119051993,-0.000272512,-0.025768697,0.01386708,0.138583273,0.076942012,-0.02047614,0.394822494,-1.441461385,0.422899868
-0.915355384,-0.384644359,-0.119051993,-0.000272512,-0.025768697,0.01386708,0.138583273,0.076942012,-0.02047614,0.394822494,-1.441461385,0.422899868
-0.915355384,-0.384644359,-0.119051993,-0.000272512,-0.025768697,0.01386708,0.138583273,0.076942012,-0.02047614,0.394822494,-1.441461385,0.422899868
-0.913971663,-0.388388664,-0.117516465,0.025747538,-0.026846588,-0.032818198,0.071144164,0.059816085,-0.0935046,0.398882334,-1.442920138,0.431038017
-0.913971663,-0.388388664,-0.117516465,0.025747538,-0.026846588,-0.032818198,0.071144164,0.059816085,-0.0935046,0.398882334,-1.442920138,0.431038017
-0.913971663,-0.388388664,-0.117516465,0.025747538,-0.026846588,-0.032818198,0.071144164,0.059816085,-0.0935046,0.398882334,-1.442920138,0.431038017
-0.913971663,-0.388388664,-0.117516465,0.025747538,-0.026846588,-0.032818198,0.071144164,0.059816085,-0.0935046,0.398882334,-1.442920138,0.431038017
-0.913971663,-0.388388664,-0.117516465,0.025747538,-0.026846588,-0.032818198,0.071144164,0.059816085,-0.0935046,0.398882334,-1.442920138,0.431038017
-0.913971663,-0.388388664,-0.117516465,0.025747538,-0.026846588,-0.032818198,0.071144164,0.059816085,-0.0935046,0.398882334,-1.442920138,0.431038017
-0.913971663,-0.388388664,-0.117516465,0.025747538,-0.026846588,-0.032818198,0.071144164,0.059816085,-0.0935046,0.398882334,-1.442920138,0.431038017
-0.912284195,-0.391754746,-0.119439192,0.021374285,-0.036313206,-0.043010712,-0.066070713,0.043270133,-0.012210114,0.402538003,-1.440613545,0.432113714
-0.912284195,-0.391754746,-0.119439192,0.021374285,-0.036313206,-0.043010712,-0.066070713,0.043270133,-0.012210114,0.402538003,-1.440613545,0.432113714
-0.912284195,-0.391754746,-0.119439192,0.021374285,-0.036313206,-0.043010712,-0.066070713,0.043270133,-0.012210114,0.402538003,-1.440613545,0.432113714
-0.912284195,-0.391754746,-0.119439192,0.021374285,-0.036313206,-0.043010712,-0.066070713,0.043270133,-0.012210114,0.402538003,-1.440613545,0.432113714
-0.912284195,-0.391754746,-0.119439192,0.021374285,-0.036313206,-0.043010712,-0.066070713,0.043270133,-0.012210114,0.402538003,-1.440613545,0.432113714
-0.912284195,-0.391754746,-0.119439192,0.021374285,-0.036313206,-0.043010712,-0.066070713,0.043270133,-0.012210114,0.402538003,-1.440613545,0.432113714
-0.912284195,-0.391754746,-0.119439192,0.021374285,-0.036313206,-0.043010712,-0.066070713,0.043270133,-0.012210114,0.402538003,-1.440613545,0.432113714
-0.912284195,-0.391754746,-0.119439192,0.021374285,-0.036313206,-0.043010712,-0.066070713,0.043270133,-0.012210114,0.402538003,-1.440613545,0.432113714
-0.912284195,-0.391754746,-0.119439192,0.021374285,-0.036313206,-0.043010712,-0.066070713,0.043270133,-0.012210114,0.402538003,-1.440613545,0.432113714
-0.912284195,-0.391754746,-0.119439192,0.021374285,-0.036313206,-0.043010712,-0.066070713,0.043270133,-0.012210114,0.402538003,-1.440613545,0.432113714
-0.912284195,-0.391754746,-0.119439192,0.021374285,-0.036313206,-0.043010712,-0.066070713,0.043270133,-0.012210114,0.402538003,-1.440613545,0.432113714
-0.912284195,-0.391754746,-0.119439192,0.021374285,-0.036313206,-0.043010712,-0.066070713,0.043270133,-0.012210114,0.402538003,-1.440613545,0.432113714
-0.912284195,-0.391754746,-0.119439192,0.021374285,-0.036313206,-0.043010712,-0.066070713,0.043270133,-0.012210114,0.402538003,-1.440613545,0.432113714
-0.912284195,-0.391754746,-0.119439192,0.021374285,-0.036313206,-0.043010712,-0.066070713,0.043270133,-0.012210114,0.402538003,-1.440613545,0.432113714
-0.912284195,-0.391754746,-0.119439192,0.021374285,-0.036313206,-0.043010712,-0.066070713,0.043270133,-0.012210114,0.402538003,-1.440613545,0.432113714
-0.912284195,-0.391754746,-0.119439192,0.021374285,-0.036313206,-0.043010712,-0.066070713,0.043270133,-0.012210114,0.402538003,-1.440613545,0.432113714
-0.912284195,-0.391754746,-0.119439192,0.021374285,-0.036313206,-0.043010712,-0.066070713,0.043270133,-0.012210114,0.402538003,-1.440613545,0.432113714
-0.912284195,-0.391754746,-0.119439192,0.021374285,-0.036313206,-0.043010712,-0.066070713,0.043270133,-0.012210114,0.402538003,-1.440613545,0.432113714
-0.912284195,-0.391754746,-0.119439192,0.021374285,-0.036313206,-0.043010712,-0.066070713,0.043270133,-0.012210114,0.402538003,-1.440613545,0.432113714
-0.912284195,-0.391754746,-0.119439192,0.021374285,-0.036313206,-0.043010712,-0.066070713,0.043270133,-0.012210114,0.402538003,-1.440613545,0.432113714
-0.911607027,-0.391815931,-0.1243103,0.01260972,-0.029187292,-0.023414552,-0.228375658,-0.005516169,0.01630041,0.402604498,-1.435268345,0.423592699
-0.911607027,-0.391815931,-0.1243103,0.01260972,-0.029187292,-0.023414552,-0.228375658,-0.005516169,0.01630041,0.402604498,-1.435268345,0.423592699
-0.911607027,-0.391815931,-0.1243103,0.01260972,-0.029187292,-0.023414552,-0.228375658,-0.005516169,0.01630041,0.402604498,-1.435268345,0.423592699
-0.911607027,-0.391815931,-0.1243103,0.01260972,-0.029187292,-0.023414552,-0.228375658,-0.005516169,0.01630041,0.402604498,-1.435268345,0.423592699
-0.911607027,-0.391815931,-0.1243103,0.01260972,-0.029187292,-0.023414552,-0.228375658,-0.005516169,0.01630041,0.402604498,-1.435268345,0.423592699
-0.911607027,-0.391815931,-0.1243103,0.01260972,-0.029187292,-0.023414552,-0.228375658,-0.005516169,0.01630041,0.402604498,-1.435268345,0.423592699
-0.911607027,-0.391815931,-0.1243103,0.01260972,-0.029187292,-0.023414552,-0.228375658,-0.005516169,0.01630041,0.402604498,-1.435268345,0.423592699
-0.911607027,-0.391815931,-0.1243103,0.01260972,-0.029187292,-0.023414552,-0.228375658,-0.005516169,0.01630041,0.402604498,-1.435268345,0.423592699
-0.911607027,-0.391815931,-0.1243103,0.01260972,-0.029187292,-0.023414552,-0.228375658,-0.005516169,0.01630041,0.402604498,-1.435268345,0.423592699
-0.911607027,-0.391815931,-0.1243103,0.01260972,-0.029187292,-0.023414552,-0.228375658,-0.005516169,0.01630041,0.402604498,-1.435268345,0.423592699
-0.911159813,-0.391531795,-0.128416359,-0.0061481,0.010827065,-0.004461706,-0.188361287,-0.029176783,-0.004743197,0.402295693,-1.43078127,0.413911674
-0.911159813,-0.391531795,-0.128416359,-0.0061481,0.010827065,-0.004461706,-0.188361287,-0.029176783,-0.004743197,0.402295693,-1.43078127,0.413911674
-0.911159813,-0.391531795,-0.128416359,-0.0061481,0.010827065,-0.004461706,-0.188361287,-0.029176783,-0.004743197,0.402295693,-1.43078127,0.413911674
-0.911159813,-0.391531795,-0.128416359,-0.0061481,0.010827065,-0.004461706,-0.188361287,-0.029176783,-0.004743197,0.402295693,-1.43078127,0.413911674
-0.911159813,-0.391531795,-0.128416359,-0.0061481,0.010827065,-0.004461706,-0.188361287,-0.029176783,-0.004743197,0.402295693,-1.43078127,0.413911674
-0.911159813,-0.391531795,-0.128416359,-0.0061481,0.010827065,-0.004461706,-0.188361287,-0.029176783,-0.004743197,0.402295693,-1.43078127,0.413911674
-0.910816371,-0.389276743,-0.137394682,-0.035345852,-0.078082681,-0.131301761,-0.193754226,0.159415722,-0.190877065,0.399846275,-1.421077297,0.393821439
-0.910816371,-0.389276743,-0.137394682,-0.035345852,-0.078082681,-0.131301761,-0.193754226,0.159415722,-0.190877065,0.399846275,-1.421077297,0.393821439
-0.910816371,-0.389276743,-0.137394682,-0.035345852,-0.078082681,-0.131301761,-0.193754226,0.159415722,-0.190877065,0.399846275,-1.421077297,0.393821439
-0.910816371,-0.389276743,-0.137394682,-0.035345852,-0.078082681,-0.131301761,-0.193754226,0.159415722,-0.190877065,0.399846275,-1.421077297,0.393821439
-0.910816371,-0.389276743,-0.137394682,-0.035345852,-0.078082681,-0.131301761,-0.193754226,0.159415722,-0.190877065,0.399846275,-1.421077297,0.393821439
-0.910816371,-0.389276743,-0.137394682,-0.035345852,-0.078082681,-0.131301761,-0.193754226,0.159415722,-0.190877065,0.399846275,-1.421077297,0.393821439
-0.910816371,-0.389276743,-0.137394682,-0.035345852,-0.078082681,-0.131301761,-0.193754226,0.159415722,-0.190877065,0.399846275,-1.421077297,0.393821439
-0.910390794,-0.387923002,-0.143891081,-0.031437933,0.066574931,-0.033924043,0.043381639,0.108988062,-0.121729575,0.398377055,-1.414038875,0.381217247
-0.910390794,-0.387923002,-0.143891081,-0.031437933,0.066574931,-0.033924043,0.043381639,0.108988062,-0.121729575,0.398377055,-1.414038875,0.381217247
-0.910390794,-0.387923002,-0.143891081,-0.031437933,0.066574931,-0.033924043,0.043381639,0.108988062,-0.121729575,0.398377055,-1.414038875,0.381217247
-0.910390794,-0.387923002,-0.143891081,-0.031437933,0.066574931,-0.033924043,0.043381639,0.108988062,-0.121729575,0.398377055,-1.414038875,0.381217247
-0.910390794,-0.387923002,-0.143891081,-0.031437933,0.066574931,-0.033924043,0.043381639,0.108988062,-0.121729575,0.398377055,-1.414038875,0.381217247
-0.910390794,-0.387923002,-0.143891081,-0.031437933,0.066574931,-0.033924043,0.043381639,0.108988062,-0.121729575,0.398377055,-1.414038875,0.381217247
-0.910390794,-0.387923002,-0.143891081,-0.031437933,0.066574931,-0.033924043,0.043381639,0.108988062,-0.121729575,0.398377055,-1.414038875,0.381217247
-0.910390794,-0.387923002,-0.143891081,-0.031437933,0.066574931,-0.033924043,0.043381639,0.108988062,-0.121729575,0.398377055,-1.414038875,0.381217247
-0.910390794,-0.387923002,-0.143891081,-0.031437933,0.066574931,-0.033924043,0.043381639,0.108988062,-0.121729575,0.398377055,-1.414038875,0.381217247
-0.910390794,-0.387923002,-0.143891081,-0.031437933,0.066574931,-0.033924043,0.043381639,0.108988062,-0.121729575,0.398377055,-1.414038875,0.381217247
-0.910390794,-0.387923002,-0.143891081,-0.031437933,0.066574931,-0.033924043,0.043381639,0.108988062,-0.121729575,0.398377055,-1.414038875,0.381217247
-0.910390794,-0.387923002,-0.143891081,-0.031437933,0.066574931,-0.033924043,0.043381639,0.108988062,-0.121729575,0.398377055,-1.414038875,0.381217247
-0.910390794,-0.387923002,-0.143891081,-0.031437933,0.066574931,-0.033924043,0.043381639,0.108988062,-0.121729575,0.398377055,-1.414038875,0.381217247
-0.910390794,-0.387923002,-0.143891081,-0.031437933,0.066574931,-0.033924043,0.043381639,0.108988062,-0.121729575,0.398377055,-1.414038875,0.381217247
-0.909317672,-0.391413331,-0.14119871,-0.061548769,-0.132342666,0.012044013,-0.084306709,0.075225718,-0.044084959,0.402166951,-1.416746751,0.386622986
-0.909317672,-0.391413331,-0.14119871,-0.061548769,-0.132342666,0.012044013,-0.084306709,0.075225718,-0.044084959,0.402166951,-1.416746751,0.386622986
-0.909317672,-0.391413331,-0.14119871,-0.061548769,-0.132342666,0.012044013,-0.084306709,0.075225718,-0.044084959,0.402166951,-1.416746751,0.386622986
-0.909317672,-0.391413331,-0.14119871,-0.061548769,-0.132342666,0.012044013,-0.084306709,0.075225718,-0.044084959,0.402166951,-1.416746751,0.386622986
-0.909317672,-0.391413331,-0.14119871,-0.061548769,-0.132342666,0.012044013,-0.084306709,0.075225718,-0.044084959,0.402166951,-1.416746751,0.386622986
-0.909317672,-0.391413331,-0.14119871,-0.061548769,-0.132342666,0.012044013,-0.084306709,0.075225718,-0.044084959,0.402166951,-1.416746751,0.386622986
-0.909317672,-0.391413331,-0.14119871,-0.061548769,-0.132342666,0.012044013,-0.084306709,0.075225718,-0.044084959,0.402166951,-1.416746751,0.386622986
-0.909317672,-0.391413331,-0.14119871,-0.061548769,-0.132342666,0.012044013,-0.084306709,0.075225718,-0.044084959,0.402166951,-1.416746751,0.386622986
-0.909317672,-0.391413331,-0.14119871,-0.061548769,-0.132342666,0.012044013,-0.084306709,0.075225718,-0.044084959,0.402166951,-1.416746751,0.386622986
-0.909317672,-0.391413331,-0.14119871,-0.061548769,-0.132342666,0.012044013,-0.084306709,0.075225718,-0.044084959,0.402166951,-1.416746751,0.386622986
-0.909317672,-0.391413331,-0.14119871,-0.061548769,-0.132342666,0.012044013,-0.084306709,0.075225718,-0.044084959,0.402166951,-1.416746751,0.386622986
-0.909317672,-0.391413331,-0.14119871,-0.061548769,-0.132342666,0.012044013,-0.084306709,0.075225718,-0.044084959,0.402166951,-1.416746751,0.386622986
-0.909317672,-0.391413331,-0.14119871,-0.061548769,-0.132342666,0.012044013,-0.084306709,0.075225718,-0.044084959,0.402166951,-1.416746751,0.386622986
-0.909317672,-0.391413331,-0.14119871,-0.061548769,-0.132342666,0.012044013,-0.084306709,0.075225718,-0.044084959,0.402166951,-1.416746751,0.386622986
-0.909317672,-0.391413331,-0.14119871,-0.061548769,-0.132342666,0.012044013,-0.084306709,0.075225718,-0.044084959,0.402166951,-1.416746751,0.386622986
-0.909317672,-0.391413331,-0.14119871,-0.061548769,-0.132342666,0.012044013,-0.084306709,0.075225718,-0.044084959,0.402166951,-1.416746751,0.386622986
-0.909317672,-0.391413331,-0.14119871,-0.061548769,-0.132342666,0.012044013,-0.084306709,0.075225718,-0.044084959,0.402166951,-1.416746751,0.386622986
-0.909317672,-0.391413331,-0.14119871,-0.061548769,-0.132342666,0.012044013,-0.084306709,0.075225718,-0.044084959,0.402166951,-1.416746751,0.386622986
-0.9093045,-0.388775051,-0.148389801,0.047095656,0.052122205,0.016595602,-0.118330427,0.031346507,0.003007561,0.399301688,-1.409031816,0.376699319
-0.9093045,-0.388775051,-0.148389801,0.047095656,0.052122205,0.016595602,-0.118330427,0.031346507,0.003007561,0.399301688,-1.409031816,0.376699319
-0.9093045,-0.388775051,-0.148389801,0.047095656,0.052122205,0.016595602,-0.118330427,0.031346507,0.003007561,0.399301688,-1.409031816,0.376699319
-0.9093045,-0.388775051,-0.148389801,0.047095656,0.052122205,0.016595602,-0.118330427,0.031346507,0.003007561,0.399301688,-1.409031816,0.376699319
-0.9093045,-0.388775051,-0.148389801,0.047095656,0.052122205,0.016595602,-0.118330427,0.031346507,0.003007561,0.399301688,-1.409031816,0.376699319
-0.9093045,-0.388775051,-0.148389801,0.047095656,0.052122205,0.016595602,-0.118330427,0.031346507,0.003007561,0.399301688,-1.409031816,0.376699319
-0.9093045,-0.388775051,-0.148389801,0.047095656,0.052122205,0.016595602,-0.118330427,0.031346507,0.003007561,0.399301688,-1.409031816,0.376699319
-0.9093045,-0.388775051,-0.148389801,0.047095656,0.052122205,0.016595602,-0.118330427,0.031346507,0.003007561,0.399301688,-1.409031816,0.376699319
-0.9093045,-0.388775051,-0.148389801,0.047095656,0.052122205,0.016595602,-0.118330427,0.031346507,0.003007561,0.399301688,-1.409031816,0.376699319
-0.9093045,-0.388775051,-0.148389801,0.047095656,0.052122205,0.016595602,-0.118330427,0.031346507,0.003007561,0.399301688,-1.409031816,0.376699319
-0.9093045,-0.388775051,-0.148389801,0.047095656,0.052122205,0.016595602,-0.118330427,0.031346507,0.003007561,0.399301688,-1.409031816,0.376699319
-0.9093045,-0.388775051,-0.148389801,0.047095656,0.052122205,0.016595602,-0.118330427,0.031346507,0.003007561,0.399301688,-1.409031816,0.376699319
-0.9093045,-0.388775051,-0.148389801,0.047095656,0.052122205,0.016595602,-0.118330427,0.031346507,0.003007561,0.399301688,-1.409031816,0.376699319
-0.9093045,-0.388775051,-0.148389801,0.047095656,0.052122205,0.016595602,-0.118330427,0.031346507,0.003007561,0.399301688,-1.409031816,0.376699319
-0.9093045,-0.388775051,-0.148389801,0.047095656,0.052122205,0.016595602,-0.118330427,0.031346507,0.003007561,0.399301688,-1.409031816,0.376699319
-0.908628762,-0.389417201,-0.150825202,0.015017748,0.002944648,0.017581046,0.056329738,0.044008192,-0.036688134,0.399998766,-1.406304052,0.376069286
-0.908628762,-0.389417201,-0.150825202,0.015017748,0.002944648,0.017581046,0.056329738,0.044008192,-0.036688134,0.399998766,-1.406304052,0.376069286
-0.908628762,-0.389417201,-0.150825202,0.015017748,0.002944648,0.017581046,0.056329738,0.044008192,-0.036688134,0.399998766,-1.406304052,0.376069286
-0.908628762,-0.389417201,-0.150825202,0.015017748,0.002944648,0.017581046,0.056329738,0.044008192,-0.036688134,0.399998766,-1.406304052,0.376069286
-0.908628762,-0.389417201,-0.150825202,0.015017748,0.002944648,0.017581046,0.056329738,0.044008192,-0.036688134,0.399998766,-1.406304052,0.376069286
-0.908628762,-0.389417201,-0.150825202,0.015017748,0.002944648,0.017581046,0.056329738,0.044008192,-0.036688134,0.399998766,-1.406304052,0.376069286
-0.908628762,-0.389417201,-0.150825202,0.015017748,0.002944648,0.017581046,0.056329738,0.044008192,-0.036688134,0.399998766,-1.406304052,0.376069286
-0.908628762,-0.389417201,-0.150825202,0.015017748,0.002944648,0.017581046,0.056329738,0.044008192,-0.036688134,0.399998766,-1.406304052,0.376069286
-0.908628762,-0.389417201,-0.150825202,0.015017748,0.002944648,0.017581046,0.056329738,0.044008192,-0.036688134,0.399998766,-1.406304052,0.376069286