TimeInterval,Activity,Accel.x,Accel.y,Accel.z,RotRate.x,RotRate.y,RotRate.z,Gravity.x,Gravity.y,Gravity.z,Attitude.pitch,Attitude.roll,Attitude.yaw,AccumulatedRateGravity,PeakRate
1,1,0.054694518,0.022424854,0.037448466,0.596063375,-0.028816137,0.326485306,0.013283299,-0.124627963,-0.992114604,0.124952863,0.013388076,0.037873789,-0.077469133,-0.312401855
1,1,0.054694518,0.022424854,0.037448466,0.596063375,-0.028816137,0.326485306,0.013283299,-0.124627963,-0.992114604,0.124952863,0.013388076,0.037873789,-0.083430358,-0.312401855
1,1,0.054694518,0.022424854,0.037448466,0.596063375,-0.028816137,0.326485306,0.013283299,-0.124627963,-0.992114604,0.124952863,0.013388076,0.037873789,-0.089391583,-0.312401855
1,1,0.013324424,-0.026627943,-0.022561133,-0.07806237,0.06472788,0.501909435,0.011989824,-0.132383615,-0.99112606,0.132773379,0.012096583,0.054305351,-0.099243978,-0.506960386
1,1,0.013324424,-0.026627943,-0.022561133,-0.07806237,0.06472788,0.501909435,0.011989824,-0.132383615,-0.99112606,0.132773379,0.012096583,0.054305351,-0.109096374,-0.506960386
1,1,0.013324424,-0.026627943,-0.022561133,-0.07806237,0.06472788,0.501909435,0.011989824,-0.132383615,-0.99112606,0.132773379,0.012096583,0.054305351,-0.119001462,-0.506960386
1,1,0.013324424,-0.026627943,-0.022561133,-0.07806237,0.06472788,0.501909435,0.011989824,-0.132383615,-0.99112606,0.132773379,0.012096583,0.054305351,-0.12890655,-0.506960386
1,1,0.023595758,0.049595281,-0.00023973,0.262417108,-0.060124103,0.589984775,0.018625237,-0.12907806,-0.991459489,0.1294392,0.018783467,0.075637877,-0.140118385,-0.57229772
1,1,0.023595758,0.049595281,-0.00023973,0.262417108,-0.060124103,0.589984775,0.018625237,-0.12907806,-0.991459489,0.1294392,0.018783467,0.075637877,-0.15133022,-0.57229772
1,1,0.023595758,0.049595281,-0.00023973,0.262417108,-0.060124103,0.589984775,0.018625237,-0.12907806,-0.991459489,0.1294392,0.018783467,0.075637877,-0.162626205,-0.57229772
1,1,0.023595758,0.049595281,-0.00023973,0.262417108,-0.060124103,0.589984775,0.018625237,-0.12907806,-0.991459489,0.1294392,0.018783467,0.075637877,-0.17392219,-0.57229772
1,1,0.009690154,0.084317476,0.033990681,1.125844836,-0.135890499,0.516428053,0.014617031,-0.159527823,-0.987085223,0.160212328,0.014807194,0.097139338,-0.183204694,-0.57229772
1,1,0.009690154,0.084317476,0.033990681,1.125844836,-0.135890499,0.516428053,0.014617031,-0.159527823,-0.987085223,0.160212328,0.014807194,0.097139338,-0.192487198,-0.57229772
1,1,0.009690154,0.084317476,0.033990681,1.125844836,-0.135890499,0.516428053,0.014617031,-0.159527823,-0.987085223,0.160212328,0.014807194,0.097139338,-0.201573976,-0.57229772
1,1,0.009690154,0.084317476,0.033990681,1.125844836,-0.135890499,0.516428053,0.014617031,-0.159527823,-0.987085223,0.160212328,0.014807194,0.097139338,-0.210660754,-0.57229772
1,1,-0.047457125,-0.062561184,-0.010696352,1.24361515,-0.102790788,0.417549342,0.008470855,-0.209731653,-0.977722287,0.211300504,0.008663649,0.114819573,-0.217838145,-0.57229772
1,1,-0.047457125,-0.062561184,-0.010696352,1.24361515,-0.102790788,0.417549342,0.008470855,-0.209731653,-0.977722287,0.211300504,0.008663649,0.114819573,-0.225015536,-0.57229772
1,1,-0.047457125,-0.062561184,-0.010696352,1.24361515,-0.102790788,0.417549342,0.008470855,-0.209731653,-0.977722287,0.211300504,0.008663649,0.114819573,-0.232550576,-0.57229772
1,1,-0.047457125,-0.062561184,-0.010696352,1.24361515,-0.102790788,0.417549342,0.008470855,-0.209731653,-0.977722287,0.211300504,0.008663649,0.114819573,-0.240085617,-0.57229772
1,1,-0.009962877,-0.009126902,0.003912568,1.237220049,-0.113309614,0.259900272,0.002196091,-0.25562799,-0.966772735,0.258497209,0.002271565,0.128567089,-0.244489217,-0.57229772
1,1,-0.009962877,-0.009126902,0.003912568,1.237220049,-0.113309614,0.259900272,0.002196091,-0.25562799,-0.966772735,0.258497209,0.002271565,0.128567089,-0.248892818,-0.57229772
1,1,-0.009962877,-0.009126902,0.003912568,1.237220049,-0.113309614,0.259900272,0.002196091,-0.25562799,-0.966772735,0.258497209,0.002271565,0.128567089,-0.253801004,-0.57229772
1,1,-0.009962877,-0.009126902,0.003912568,1.237220049,-0.113309614,0.259900272,0.002196091,-0.25562799,-0.966772735,0.258497209,0.002271565,0.128567089,-0.258709191,-0.57229772
1,1,0.006386383,-0.10122627,0.054062963,0.928878248,-0.304451883,0.303278387,-0.010079069,-0.303940058,-0.952637851,0.308825645,-0.010579774,0.14076042,-0.263340563,-0.57229772
1,1,0.006386383,-0.10122627,0.054062963,0.928878248,-0.304451883,0.303278387,-0.010079069,-0.303940058,-0.952637851,0.308825645,-0.010579774,0.14076042,-0.267971934,-0.57229772
1,1,0.006386383,-0.10122627,0.054062963,0.928878248,-0.304451883,0.303278387,-0.010079069,-0.303940058,-0.952637851,0.308825645,-0.010579774,0.14076042,-0.271986568,-0.57229772
1,1,0.006386383,-0.10122627,0.054062963,0.928878248,-0.304451883,0.303278387,-0.010079069,-0.303940058,-0.952637851,0.308825645,-0.010579774,0.14076042,-0.276001201,-0.57229772
1,1,-0.002352644,-0.033398896,-0.012727261,0.262990087,-0.285410136,0.187128291,-0.023999343,-0.319689155,-0.947218478,0.325401422,-0.02533123,0.151215081,-0.277747412,-0.57229772
1,1,-0.002352644,-0.033398896,-0.012727261,0.262990087,-0.285410136,0.187128291,-0.023999343,-0.319689155,-0.947218478,0.325401422,-0.02533123,0.151215081,-0.279493623,-0.57229772
1,1,-0.002352644,-0.033398896,-0.012727261,0.262990087,-0.285410136,0.187128291,-0.023999343,-0.319689155,-0.947218478,0.325401422,-0.02533123,0.151215081,-0.2798277,-0.57229772
1,1,-0.002352644,-0.033398896,-0.012727261,0.262990087,-0.285410136,0.187128291,-0.023999343,-0.319689155,-0.947218478,0.325401422,-0.02533123,0.151215081,-0.280161777,-0.57229772
1,1,0.005658194,0.005379796,0.067144454,0.764151156,-0.291419625,0.125434294,-0.036770917,-0.341439068,-0.939184368,0.348447556,-0.039131984,0.158396219,-0.279577493,-0.57229772
1,1,0.005658194,0.005379796,0.067144454,0.764151156,-0.291419625,0.125434294,-0.036770917,-0.341439068,-0.939184368,0.348447556,-0.039131984,0.158396219,-0.278993209,-0.57229772
1,1,0.005658194,0.005379796,0.067144454,0.764151156,-0.291419625,0.125434294,-0.036770917,-0.341439068,-0.939184368,0.348447556,-0.039131984,0.158396219,-0.277799489,-0.57229772
1,1,0.005658194,0.005379796,0.067144454,0.764151156,-0.291419625,0.125434294,-0.036770917,-0.341439068,-0.939184368,0.348447556,-0.039131984,0.158396219,-0.276605769,-0.57229772
1,1,-0.082381755,-0.20731166,-0.020186722,-0.301935583,0.083340064,0.007076813,-0.042969257,-0.345071465,-0.937592328,0.352314938,-0.045797314,0.16332184,-0.27493239,-0.57229772
1,1,-0.082381755,-0.20731166,-0.020186722,-0.301935583,0.083340064,0.007076813,-0.042969257,-0.345071465,-0.937592328,0.352314938,-0.045797314,0.16332184,-0.273259011,-0.57229772
1,1,-0.082381755,-0.20731166,-0.020186722,-0.301935583,0.083340064,0.007076813,-0.042969257,-0.345071465,-0.937592328,0.352314938,-0.045797314,0.16332184,-0.270510349,-0.57229772
1,1,-0.082381755,-0.20731166,-0.020186722,-0.301935583,0.083340064,0.007076813,-0.042969257,-0.345071465,-0.937592328,0.352314938,-0.045797314,0.16332184,-0.267761686,-0.57229772
1,1,0.001612529,-0.026242495,0.021122336,-0.127956569,-0.021360073,0.013489066,-0.042063631,-0.340242803,-0.939396322,0.347175093,-0.044747408,0.163940924,-0.264565067,-0.57229772
1,1,0.001612529,-0.026242495,0.021122336,-0.127956569,-0.021360073,0.013489066,-0.042063631,-0.340242803,-0.939396322,0.347175093,-0.044747408,0.163940924,-0.261368448,-0.57229772
1,1,0.001612529,-0.026242495,0.021122336,-0.127956569,-0.021360073,0.013489066,-0.042063631,-0.340242803,-0.939396322,0.347175093,-0.044747408,0.163940924,-0.256692548,-0.57229772
1,1,0.001612529,-0.026242495,0.021122336,-0.127956569,-0.021360073,0.013489066,-0.042063631,-0.340242803,-0.939396322,0.347175093,-0.044747408,0.163940924,-0.252016648,-0.57229772
1,1,-0.019547261,0.01888597,0.019722044,-0.07513918,0.046004187,0.025199464,-0.044142976,-0.347300619,-0.936714292,0.354690991,-0.047090496,0.165532875,-0.248065617,-0.57229772
1,1,-0.019547261,0.01888597,0.019722044,-0.07513918,0.046004187,0.025199464,-0.044142976,-0.347300619,-0.936714292,0.354690991,-0.047090496,0.165532875,-0.244114586,-0.57229772
1,1,-0.019547261,0.01888597,0.019722044,-0.07513918,0.046004187,0.025199464,-0.044142976,-0.347300619,-0.936714292,0.354690991,-0.047090496,0.165532875,-0.240692411,-0.57229772
1,1,-0.019547261,0.01888597,0.019722044,-0.07513918,0.046004187,0.025199464,-0.044142976,-0.347300619,-0.936714292,0.354690991,-0.047090496,0.165532875,-0.237270236,-0.57229772
1,1,0.006073803,0.004845917,0.009642124,0.031391401,0.013424613,0.016365545,-0.046448618,-0.349526465,-0.935774446,0.357065644,-0.04959585,0.167633695,-0.233552054,-0.57229772
1,1,0.006073803,0.004845917,0.009642124,0.031391401,0.013424613,0.016365545,-0.046448618,-0.349526465,-0.935774446,0.357065644,-0.04959585,0.167633695,-0.229833872,-0.57229772
1,1,0.006073803,0.004845917,0.009642124,0.031391401,0.013424613,0.016365545,-0.046448618,-0.349526465,-0.935774446,0.357065644,-0.04959585,0.167633695,-0.224015131,-0.57229772
1,1,0.006073803,0.004845917,0.009642124,0.031391401,0.013424613,0.016365545,-0.046448618,-0.349526465,-0.935774446,0.357065644,-0.04959585,0.167633695,-0.21819639,-0.57229772
1,1,0.010355707,0.005556613,0.004526973,0.052423544,0.049943268,0.012544815,-0.047343064,-0.3532736,-0.934321344,0.361068042,-0.050627771,0.169040275,-0.212585282,-0.57229772
1,1,0.010355707,0.005556613,0.004526973,0.052423544,0.049943268,0.012544815,-0.047343064,-0.3532736,-0.934321344,0.361068042,-0.050627771,0.169040275,-0.206974173,-0.57229772
1,1,0.010355707,0.005556613,0.004526973,0.052423544,0.049943268,0.012544815,-0.047343064,-0.3532736,-0.934321344,0.361068042,-0.050627771,0.169040275,-0.197471894,-0.57229772
1,1,0.010355707,0.005556613,0.004526973,0.052423544,0.049943268,0.012544815,-0.047343064,-0.3532736,-0.934321344,0.361068042,-0.050627771,0.169040275,-0.187969614,-0.57229772
1,1,0.023574587,-0.00496605,0.007185698,0.037812855,0.001436307,0.000668235,-0.046203401,-0.353737086,-0.934203029,0.361563522,-0.049417291,0.169808726,-0.177887995,-0.57229772
1,1,0.023574587,-0.00496605,0.007185698,0.037812855,0.001436307,0.000668235,-0.046203401,-0.353737086,-0.934203029,0.361563522,-0.049417291,0.169808726,-0.167806376,-0.57229772
1,1,0.023574587,-0.00496605,0.007185698,0.037812855,0.001436307,0.000668235,-0.046203401,-0.353737086,-0.934203029,0.361563522,-0.049417291,0.169808726,-0.15641801,-0.57229772
1,1,0.023574587,-0.00496605,0.007185698,0.037812855,0.001436307,0.000668235,-0.046203401,-0.353737086,-0.934203029,0.361563522,-0.049417291,0.169808726,-0.145029644,-0.57229772
1,1,0.008718107,-0.005414933,0.003508508,0.034109358,0.012707145,-0.009752607,-0.044957761,-0.354661494,-0.933913291,0.362552007,-0.048101983,0.169339312,-0.133522332,-0.57229772
1,1,0.008718107,-0.005414933,0.003508508,0.034109358,0.012707145,-0.009752607,-0.044957761,-0.354661494,-0.933913291,0.362552007,-0.048101983,0.169339312,-0.12201502,-0.471623677
1,1,0.008718107,-0.005414933,0.003508508,0.034109358,0.012707145,-0.009752607,-0.044957761,-0.354661494,-0.933913291,0.362552007,-0.048101983,0.169339312,-0.112521189,-0.471623677
1,1,0.008718107,-0.005414933,0.003508508,0.034109358,0.012707145,-0.009752607,-0.044957761,-0.354661494,-0.933913291,0.362552007,-0.048101983,0.169339312,-0.103027358,-0.471623677
1,1,0.007934541,-0.000705957,0.010282457,0.051650681,0.015652224,-0.013913743,-0.042892437,-0.356761038,-0.933210492,0.364798478,-0.045929908,0.168427854,-0.093491186,-0.471623677
1,1,0.007934541,-0.000705957,0.010282457,0.051650681,0.015652224,-0.013913743,-0.042892437,-0.356761038,-0.933210492,0.364798478,-0.045929908,0.168427854,-0.083955014,-0.376154332
1,1,0.007934541,-0.000705957,0.010282457,0.051650681,0.015652224,-0.013913743,-0.042892437,-0.356761038,-0.933210492,0.364798478,-0.045929908,0.168427854,-0.076328229,-0.376154332
1,1,0.007934541,-0.000705957,0.010282457,0.051650681,0.015652224,-0.013913743,-0.042892437,-0.356761038,-0.933210492,0.364798478,-0.045929908,0.168427854,-0.068701444,-0.376154332
1,1,-0.004154578,-0.008758307,0.014006913,0.026997292,-0.001893213,-0.014811921,-0.041606534,-0.358581066,-0.932570934,0.366747423,-0.044585307,0.16748559,-0.060910982,-0.376154332
1,1,-0.004154578,-0.008758307,0.014006913,0.026997292,-0.001893213,-0.014811921,-0.041606534,-0.358581066,-0.932570934,0.366747423,-0.044585307,0.16748559,-0.05312052,-0.21958234
1,1,-0.004154578,-0.008758307,0.014006913,0.026997292,-0.001893213,-0.014811921,-0.041606534,-0.358581066,-0.932570934,0.366747423,-0.044585307,0.16748559,-0.048461498,-0.21958234
1,1,-0.004154578,-0.008758307,0.014006913,0.026997292,-0.001893213,-0.014811921,-0.041606534,-0.358581066,-0.932570934,0.366747423,-0.044585307,0.16748559,-0.043802475,-0.21958234
1,1,-0.006181996,-0.006363958,0.014170468,0.017662607,0.010920719,-0.00899121,-0.040754039,-0.359205365,-0.932368279,0.367416304,-0.043682433,0.166682561,-0.039336018,-0.21958234
1,1,-0.006181996,-0.006363958,0.014170468,0.017662607,0.010920719,-0.00899121,-0.040754039,-0.359205365,-0.932368279,0.367416304,-0.043682433,0.166682561,-0.034869561,-0.205741576
1,1,-0.006181996,-0.006363958,0.014170468,0.017662607,0.010920719,-0.00899121,-0.040754039,-0.359205365,-0.932368279,0.367416304,-0.043682433,0.166682561,-0.030679919,-0.205741576
1,1,-0.006181996,-0.006363958,0.014170468,0.017662607,0.010920719,-0.00899121,-0.040754039,-0.359205365,-0.932368279,0.367416304,-0.043682433,0.166682561,-0.026490277,-0.205741576
1,1,-0.003150076,-0.003424674,0.02319026,0.097221047,0.008693822,-0.002291921,-0.040474806,-0.361717373,-0.931408823,0.370109356,-0.043428145,0.166559684,-0.022474346,-0.205741576
1,1,-0.003150076,-0.003424674,0.02319026,0.097221047,0.008693822,-0.002291921,-0.040474806,-0.361717373,-0.931408823,0.370109356,-0.043428145,0.166559684,-0.018458414,-0.092320439
1,1,-0.003150076,-0.003424674,0.02319026,0.097221047,0.008693822,-0.002291921,-0.040474806,-0.361717373,-0.931408823,0.370109356,-0.043428145,0.166559684,-0.016710905,-0.092320439
1,1,-0.003150076,-0.003424674,0.02319026,0.097221047,0.008693822,-0.002291921,-0.040474806,-0.361717373,-0.931408823,0.370109356,-0.043428145,0.166559684,-0.014963396,-0.092320439
1,1,8.88E-05,-0.006972045,0.013063967,0.036428373,-0.016592167,-0.001426234,-0.041195937,-0.365372092,-0.929949522,0.374032509,-0.044270167,0.166712898,-0.012999229,-0.092320439
1,1,8.88E-05,-0.006972045,0.013063967,0.036428373,-0.016592167,-0.001426234,-0.041195937,-0.365372092,-0.929949522,0.374032509,-0.044270167,0.166712898,-0.011035061,-0.046402422
1,1,8.88E-05,-0.006972045,0.013063967,0.036428373,-0.016592167,-0.001426234,-0.041195937,-0.365372092,-0.929949522,0.374032509,-0.044270167,0.166712898,-0.009989254,-0.046402422
1,1,8.88E-05,-0.006972045,0.013063967,0.036428373,-0.016592167,-0.001426234,-0.041195937,-0.365372092,-0.929949522,0.374032509,-0.044270167,0.166712898,-0.008943447,-0.046402422
1,1,-0.001995549,0.002830625,0.00703156,0.051657032,0.006060353,-0.000663079,-0.041644569,-0.366690755,-0.929410338,0.375449506,-0.044777563,0.166715311,-0.008090543,-0.046402422
1,1,-0.001995549,0.002830625,0.00703156,0.051657032,0.006060353,-0.000663079,-0.041644569,-0.366690755,-0.929410338,0.375449506,-0.044777563,0.166715311,-0.007237639,-0.036265113
1,1,-0.001995549,0.002830625,0.00703156,0.051657032,0.006060353,-0.000663079,-0.041644569,-0.366690755,-0.929410338,0.375449506,-0.044777563,0.166715311,-0.006864394,-0.036265113
1,1,-0.001995549,0.002830625,0.00703156,0.051657032,0.006060353,-0.000663079,-0.041644569,-0.366690755,-0.929410338,0.375449506,-0.044777563,0.166715311,-0.006491149,-0.036265113
1,1,0.011711199,-0.002159894,0.005170405,0.073469371,-0.018704997,-0.001051954,-0.041557353,-0.370046616,-0.928083241,0.379059204,-0.044747722,0.166743611,-0.005945863,-0.036265113
1,1,0.011711199,-0.002159894,0.005170405,0.073469371,-0.018704997,-0.001051954,-0.041557353,-0.370046616,-0.928083241,0.379059204,-0.044747722,0.166743611,-0.005400576,-0.036265113
1,1,0.011711199,-0.002159894,0.005170405,0.073469371,-0.018704997,-0.001051954,-0.041557353,-0.370046616,-0.928083241,0.379059204,-0.044747722,0.166743611,-0.005303247,-0.036265113
1,1,0.011711199,-0.002159894,0.005170405,0.073469371,-0.018704997,-0.001051954,-0.041557353,-0.370046616,-0.928083241,0.379059204,-0.044747722,0.166743611,-0.005205917,-0.036265113
1,1,0.001417406,-0.010319829,0.004246891,0.009906736,-0.020963879,0.003724,-0.042188849,-0.371331871,-0.927541256,0.380443056,-0.045453281,0.166795386,-0.005127235,-0.036265113
1,1,0.001417406,-0.010319829,0.004246891,0.009906736,-0.020963879,0.003724,-0.042188849,-0.371331871,-0.927541256,0.380443056,-0.045453281,0.166795386,-0.005048553,-0.036265113
1,1,0.001417406,-0.010319829,0.004246891,0.009906736,-0.020963879,0.003724,-0.042188849,-0.371331871,-0.927541256,0.380443056,-0.045453281,0.166795386,-0.004245002,-0.036265113
1,1,0.001417406,-0.010319829,0.004246891,0.009906736,-0.020963879,0.003724,-0.042188849,-0.371331871,-0.927541256,0.380443056,-0.045453281,0.166795386,-0.003441451,-0.036265113
1,1,-0.000120912,-0.005449861,0.011001348,0.034777161,0.005098699,0.000602082,-0.042008568,-0.371669978,-0.927414,0.380807219,-0.045265515,0.166833196,-0.002794436,-0.036265113
1,1,-0.000120912,-0.005449861,0.011001348,0.034777161,0.005098699,0.000602082,-0.042008568,-0.371669978,-0.927414,0.380807219,-0.045265515,0.166833196,-0.002147421,-0.031846418
2,1,-0.000120912,-0.005449861,0.011001348,0.034777161,0.005098699,0.000602082,-0.042008568,-0.371669978,-0.927414,0.380807219,-0.045265515,0.166833196,-0.001796412,-0.031846418
2,1,-0.000120912,-0.005449861,0.011001348,0.034777161,0.005098699,0.000602082,-0.042008568,-0.371669978,-0.927414,0.380807219,-0.045265515,0.166833196,-0.001445403,-0.031846418
2,1,0.004874311,0.018788427,-0.003919005,0.06440296,-0.03200664,-0.003081868,-0.042380355,-0.375293523,-0.925936639,0.384713417,-0.045738332,0.166710921,-0.000773385,-0.031846418
2,1,0.004874311,0.018788427,-0.003919005,0.06440296,-0.03200664,-0.003081868,-0.042380355,-0.375293523,-0.925936639,0.384713417,-0.045738332,0.166710921,-0.000101367,-0.031846418
2,1,0.004874311,0.018788427,-0.003919005,0.06440296,-0.03200664,-0.003081868,-0.042380355,-0.375293523,-0.925936639,0.384713417,-0.045738332,0.166710921,0.000778283,0.013368774
2,1,0.004874311,0.018788427,-0.003919005,0.06440296,-0.03200664,-0.003081868,-0.042380355,-0.375293523,-0.925936639,0.384713417,-0.045738332,0.166710921,0.001657932,0.013368774
2,1,-0.016945641,0.001739413,0.006613672,0.037088767,0.027359881,0.00335414,-0.042273659,-0.376722842,-0.925360918,0.386255938,-0.045651685,0.166780562,0.001995286,0.013368774
2,1,-0.016945641,0.001739413,0.006613672,0.037088767,0.027359881,0.00335414,-0.042273659,-0.376722842,-0.925360918,0.386255938,-0.045651685,0.166780562,0.002332639,0.013368774
2,1,-0.016945641,0.001739413,0.006613672,0.037088767,0.027359881,0.00335414,-0.042273659,-0.376722842,-0.925360918,0.386255938,-0.045651685,0.166780562,0.002090652,0.013368774
2,1,-0.016945641,0.001739413,0.006613672,0.037088767,0.027359881,0.00335414,-0.042273659,-0.376722842,-0.925360918,0.386255938,-0.045651685,0.166780562,0.001848665,0.013368774
2,1,-0.001116887,-0.001276106,0.015543461,0.033705249,0.027508531,-0.013573337,-0.040859975,-0.377506673,-0.925104976,0.387102255,-0.044139247,0.166817624,0.001922152,0.013368774
2,1,-0.001116887,-0.001276106,0.015543461,0.033705249,0.027508531,-0.013573337,-0.040859975,-0.377506673,-0.925104976,0.387102255,-0.044139247,0.166817624,0.001995639,0.013368774
2,1,-0.001116887,-0.001276106,0.015543461,0.033705249,0.027508531,-0.013573337,-0.040859975,-0.377506673,-0.925104976,0.387102255,-0.044139247,0.166817624,0.00195018,0.013368774
2,1,-0.001116887,-0.001276106,0.015543461,0.033705249,0.027508531,-0.013573337,-0.040859975,-0.377506673,-0.925104976,0.387102255,-0.044139247,0.166817624,0.00190472,0.013368774
2,1,-0.003585726,0.005646676,-0.004129589,0.06847965,0.069859385,-0.037884377,-0.039657611,-0.379546583,-0.924322307,0.389306151,-0.042878229,0.166289853,0.001959098,0.013368774
2,1,-0.003585726,0.005646676,-0.004129589,0.06847965,0.069859385,-0.037884377,-0.039657611,-0.379546583,-0.924322307,0.389306151,-0.042878229,0.166289853,0.002013475,0.013368774
2,1,-0.003585726,0.005646676,-0.004129589,0.06847965,0.069859385,-0.037884377,-0.039657611,-0.379546583,-0.924322307,0.389306151,-0.042878229,0.166289853,0.002025512,0.013368774
2,1,-0.003585726,0.005646676,-0.004129589,0.06847965,0.069859385,-0.037884377,-0.039657611,-0.379546583,-0.924322307,0.389306151,-0.042878229,0.166289853,0.002037548,0.013368774
2,1,0.004805986,0.000570685,0.001626134,0.150237307,0.077716105,-0.060482845,-0.036254272,-0.383534104,-0.922814846,0.393620015,-0.039266422,0.164903245,0.002345069,0.020560946
2,1,0.004805986,0.000570685,0.001626134,0.150237307,0.077716105,-0.060482845,-0.036254272,-0.383534104,-0.922814846,0.393620015,-0.039266422,0.164903245,0.002652589,0.020560946
2,1,0.004805986,0.000570685,0.001626134,0.150237307,0.077716105,-0.060482845,-0.036254272,-0.383534104,-0.922814846,0.393620015,-0.039266422,0.164903245,0.002796432,0.020560946
2,1,0.004805986,0.000570685,0.001626134,0.150237307,0.077716105,-0.060482845,-0.036254272,-0.383534104,-0.922814846,0.393620015,-0.039266422,0.164903245,0.002940276,0.020560946
2,1,-0.024188641,-0.020632923,-0.035969198,0.481482387,0.237176165,-0.178297788,-0.029506993,-0.395243764,-0.918102264,0.406333221,-0.032128055,0.160208516,0.003787823,0.055746105
2,1,-0.024188641,-0.020632923,-0.035969198,0.481482387,0.237176165,-0.178297788,-0.029506993,-0.395243764,-0.918102264,0.406333221,-0.032128055,0.160208516,0.004635369,0.055746105
2,1,-0.024188641,-0.020632923,-0.035969198,0.481482387,0.237176165,-0.178297788,-0.029506993,-0.395243764,-0.918102264,0.406333221,-0.032128055,0.160208516,0.005675481,0.055746105
2,1,-0.024188641,-0.020632923,-0.035969198,0.481482387,0.237176165,-0.178297788,-0.029506993,-0.395243764,-0.918102264,0.406333221,-0.032128055,0.160208516,0.006715593,0.055746105
2,1,-0.016199993,-0.014882594,-0.05597657,0.834692478,0.272346228,-0.471894324,-0.016102869,-0.415840894,-0.909294844,0.428867246,-0.017707333,0.148456367,0.012688731,0.302397433
2,1,-0.016199993,-0.014882594,-0.05597657,0.834692478,0.272346228,-0.471894324,-0.016102869,-0.415840894,-0.909294844,0.428867246,-0.017707333,0.148456367,0.018661869,0.302397433
2,1,-0.016199993,-0.014882594,-0.05597657,0.834692478,0.272346228,-0.471894324,-0.016102869,-0.415840894,-0.909294844,0.428867246,-0.017707333,0.148456367,0.024808718,0.302397433
2,1,-0.016199993,-0.014882594,-0.05597657,0.834692478,0.272346228,-0.471894324,-0.016102869,-0.415840894,-0.909294844,0.428867246,-0.017707333,0.148456367,0.030955567,0.302397433
2,1,-0.171761543,-0.148618132,-0.156092048,2.162004709,0.736713767,-1.044545174,0.01386349,-0.464890242,-0.885259807,0.483510654,0.015659083,0.115612986,0.043297981,0.612175748
2,1,-0.171761543,-0.148618132,-0.156092048,2.162004709,0.736713767,-1.044545174,0.01386349,-0.464890242,-0.885259807,0.483510654,0.015659083,0.115612986,0.055640396,0.612175748
2,1,-0.171761543,-0.148618132,-0.156092048,2.162004709,0.736713767,-1.044545174,0.01386349,-0.464890242,-0.885259807,0.483510654,0.015659083,0.115612986,0.067766152,0.612175748
2,1,-0.171761543,-0.148618132,-0.156092048,2.162004709,0.736713767,-1.044545174,0.01386349,-0.464890242,-0.885259807,0.483510654,0.015659083,0.115612986,0.079891909,0.612175748
2,1,-0.085633077,-0.115361571,-0.151874304,3.10739398,0.959524274,-1.723000765,0.072098218,-0.558067858,-0.826657236,0.592055485,0.086996436,0.04471722,0.102031929,1.112888961
2,1,-0.085633077,-0.115361571,-0.151874304,3.10739398,0.959524274,-1.723000765,0.072098218,-0.558067858,-0.826657236,0.592055485,0.086996436,0.04471722,0.124171949,1.112888961
2,1,-0.085633077,-0.115361571,-0.151874304,3.10739398,0.959524274,-1.723000765,0.072098218,-0.558067858,-0.826657236,0.592055485,0.086996436,0.04471722,0.146504873,1.112888961
2,1,-0.085633077,-0.115361571,-0.151874304,3.10739398,0.959524274,-1.723000765,0.072098218,-0.558067858,-0.826657236,0.592055485,0.086996436,0.04471722,0.168837797,1.112888961
2,1,-0.153723985,-0.280542552,-0.063522458,2.678929329,1.174562931,-2.556717873,0.157797456,-0.641589403,-0.750641823,0.696568606,0.207199742,-0.083414926,0.200679352,1.588320467
2,1,-0.153723985,-0.280542552,-0.063522458,2.678929329,1.174562931,-2.556717873,0.157797456,-0.641589403,-0.750641823,0.696568606,0.207199742,-0.083414926,0.232520906,1.588320467
2,1,-0.153723985,-0.280542552,-0.063522458,2.678929329,1.174562931,-2.556717873,0.157797456,-0.641589403,-0.750641823,0.696568606,0.207199742,-0.083414926,0.264190418,1.588320467
2,1,-0.153723985,-0.280542552,-0.063522458,2.678929329,1.174562931,-2.556717873,0.157797456,-0.641589403,-0.750641823,0.696568606,0.207199742,-0.083414926,0.295859931,1.588320467
2,1,-0.14939028,-0.382539928,-0.082072139,1.929524541,1.333098412,-2.970791578,0.268194139,-0.683222771,-0.679175019,0.752167057,0.376086722,-0.258096676,0.328250463,1.62437141
2,1,-0.14939028,-0.382539928,-0.082072139,1.929524541,1.333098412,-2.970791578,0.268194139,-0.683222771,-0.679175019,0.752167057,0.376086722,-0.258096676,0.360640994,1.62437141
2,1,-0.14939028,-0.382539928,-0.082072139,1.929524541,1.333098412,-2.970791578,0.268194139,-0.683222771,-0.679175019,0.752167057,0.376086722,-0.258096676,0.393050174,1.62437141
2,1,-0.14939028,-0.382539928,-0.082072139,1.929524541,1.333098412,-2.970791578,0.268194139,-0.683222771,-0.679175019,0.752167057,0.376086722,-0.258096676,0.425459353,1.62437141
2,1,-0.173765033,-0.418159425,0.053854585,1.38164413,1.154878259,-3.885917664,0.394420832,-0.680546939,-0.617485404,0.748508837,0.568428227,-0.466697562,0.46855106,2.158497802
2,1,-0.173765033,-0.418159425,0.053854585,1.38164413,1.154878259,-3.885917664,0.394420832,-0.680546939,-0.617485404,0.748508837,0.568428227,-0.466697562,0.511642768,2.158497802
2,1,-0.173765033,-0.418159425,0.053854585,1.38164413,1.154878259,-3.885917664,0.394420832,-0.680546939,-0.617485404,0.748508837,0.568428227,-0.466697562,0.554891011,2.158497802
2,1,-0.173765033,-0.418159425,0.053854585,1.38164413,1.154878259,-3.885917664,0.394420832,-0.680546939,-0.617485404,0.748508837,0.568428227,-0.466697562,0.598139254,2.158497802
2,1,-0.205156684,-0.463331342,0.021414161,0.267286986,1.294683814,-4.427395344,0.531509697,-0.62504524,-0.57167834,0.675189514,0.749002854,-0.669933094,0.635495055,2.158497802
2,1,-0.205156684,-0.463331342,0.021414161,0.267286986,1.294683814,-4.427395344,0.531509697,-0.62504524,-0.57167834,0.675189514,0.749002854,-0.669933094,0.672850856,2.158497802
2,1,-0.205156684,-0.463331342,0.021414161,0.267286986,1.294683814,-4.427395344,0.531509697,-0.62504524,-0.57167834,0.675189514,0.749002854,-0.669933094,0.709885648,2.158497802
2,1,-0.205156684,-0.463331342,0.021414161,0.267286986,1.294683814,-4.427395344,0.531509697,-0.62504524,-0.57167834,0.675189514,0.749002854,-0.669933094,0.74692044,2.158497802
2,1,-0.186743498,-0.220187545,0.130758286,-0.516924679,1.054391026,-4.622931957,0.664859951,-0.508310914,-0.547340274,0.533222303,0.88204354,-0.816014685,0.779691236,2.158497802
2,1,-0.186743498,-0.220187545,0.130758286,-0.516924679,1.054391026,-4.622931957,0.664859951,-0.508310914,-0.547340274,0.533222303,0.88204354,-0.816014685,0.812462031,2.158497802
2,1,-0.186743498,-0.220187545,0.130758286,-0.516924679,1.054391026,-4.622931957,0.664859951,-0.508310914,-0.547340274,0.533222303,0.88204354,-0.816014685,0.845775124,2.158497802
2,1,-0.186743498,-0.220187545,0.130758286,-0.516924679,1.054391026,-4.622931957,0.664859951,-0.508310914,-0.547340274,0.533222303,0.88204354,-0.816014685,0.879088216,2.158497802
2,1,-0.258174598,-0.201346695,0.055700541,-1.115053773,0.721105576,-4.922916889,0.765602827,-0.353873521,-0.537239254,0.361709369,0.958916558,-0.917997946,0.910106105,2.158497802
2,1,-0.258174598,-0.201346695,0.055700541,-1.115053773,0.721105576,-4.922916889,0.765602827,-0.353873521,-0.537239254,0.361709369,0.958916558,-0.917997946,0.941123995,2.158497802
2,1,-0.258174598,-0.201346695,0.055700541,-1.115053773,0.721105576,-4.922916889,0.765602827,-0.353873521,-0.537239254,0.361709369,0.958916558,-0.917997946,0.971826411,2.158497802
2,1,-0.258174598,-0.201346695,0.055700541,-1.115053773,0.721105576,-4.922916889,0.765602827,-0.353873521,-0.537239254,0.361709369,0.958916558,-0.917997946,1.002528826,2.158497802
2,1,-0.252358019,0.24990347,0.309438288,-0.979036987,0.388171315,-4.598294735,0.831013799,-0.177057311,-0.527320504,0.177995715,1.00535844,-0.993675776,1.033361994,2.158497802
2,1,-0.252358019,0.24990347,0.309438288,-0.979036987,0.388171315,-4.598294735,0.831013799,-0.177057311,-0.527320504,0.177995715,1.00535844,-0.993675776,1.064195161,2.158497802
2,1,-0.252358019,0.24990347,0.309438288,-0.979036987,0.388171315,-4.598294735,0.831013799,-0.177057311,-0.527320504,0.177995715,1.00535844,-0.993675776,1.094928492,2.158497802
2,1,-0.252358019,0.24990347,0.309438288,-0.979036987,0.388171315,-4.598294735,0.831013799,-0.177057311,-0.527320504,0.177995715,1.00535844,-0.993675776,1.125661823,2.158497802
2,1,-0.3963449,0.302300096,0.116321564,-0.524825454,-0.103215933,-3.549633265,0.84911567,-0.022423266,-0.527731001,0.022425145,1.014713022,-1.05280455,1.154144657,2.158497802
2,1,-0.3963449,0.302300096,0.116321564,-0.524825454,-0.103215933,-3.549633265,0.84911567,-0.022423266,-0.527731001,0.022425145,1.014713022,-1.05280455,1.182627491,2.158497802
2,1,-0.3963449,0.302300096,0.116321564,-0.524825454,-0.103215933,-3.549633265,0.84911567,-0.022423266,-0.527731001,0.022425145,1.014713022,-1.05280455,1.21081484,2.158497802
2,1,-0.3963449,0.302300096,0.116321564,-0.524825454,-0.103215933,-3.549633265,0.84911567,-0.022423266,-0.527731001,0.022425145,1.014713022,-1.05280455,1.23900219,2.158497802
2,1,-0.247033894,0.236650229,0.033138633,-0.737234652,-0.774477661,-2.48609519,0.835058391,0.090528421,-0.542662144,-0.09065253,0.99452702,-1.09932663,1.251858242,2.158497802
2,1,-0.247033894,0.236650229,0.033138633,-0.737234652,-0.774477661,-2.48609519,0.835058391,0.090528421,-0.542662144,-0.09065253,0.99452702,-1.09932663,1.264714293,2.158497802
2,1,-0.247033894,0.236650229,0.033138633,-0.737234652,-0.774477661,-2.48609519,0.835058391,0.090528421,-0.542662144,-0.09065253,0.99452702,-1.09932663,1.276866642,2.158497802
2,1,-0.247033894,0.236650229,0.033138633,-0.737234652,-0.774477661,-2.48609519,0.835058391,0.090528421,-0.542662144,-0.09065253,0.99452702,-1.09932663,1.28901899,2.158497802
2,1,-0.29083252,0.58298862,0.103817225,-0.633632064,-0.501586437,-1.406462669,0.811123371,0.169528499,-0.559767067,-0.170351225,0.966736567,-1.11962477,1.291670158,2.158497802
2,1,-0.29083252,0.58298862,0.103817225,-0.633632064,-0.501586437,-1.406462669,0.811123371,0.169528499,-0.559767067,-0.170351225,0.966736567,-1.11962477,1.294321326,2.158497802
2,1,-0.29083252,0.58298862,0.103817225,-0.633632064,-0.501586437,-1.406462669,0.811123371,0.169528499,-0.559767067,-0.170351225,0.966736567,-1.11962477,1.292039468,2.158497802
2,1,-0.16038394,0.23358117,0.031873584,-0.876720428,-0.703784466,-0.314340681,0.791621387,0.214080349,-0.572280884,-0.215750256,0.944851245,-1.112567018,1.272695401,2.158497802
2,1,-0.121804953,0.279672146,0.073147416,-0.230138823,-0.158424646,0.206430987,0.779257178,0.226522118,-0.584333897,-0.228505494,0.927384729,-1.094361342,1.25993048,2.158497802
2,1,-0.121804953,0.279672146,0.073147416,-0.230138823,-0.158424646,0.206430987,0.779257178,0.226522118,-0.584333897,-0.228505494,0.927384729,-1.094361342,1.247165558,2.158497802
2,1,-0.065989733,0.098414466,-0.237784266,0.645014107,0.187723532,0.386694461,0.784476876,0.20961386,-0.583659291,-0.211180027,0.931139312,-1.103519541,1.241315049,2.158497802
2,1,-0.065989733,0.098414466,-0.237784266,0.645014107,0.187723532,0.386694461,0.784476876,0.20961386,-0.583659291,-0.211180027,0.931139312,-1.103519541,1.23546454,2.158497802
2,1,0.017270088,-0.040485129,-0.045477569,0.199272558,0.112997986,0.25321278,0.788298965,0.197649851,-0.582682967,-0.198959895,0.934265792,-1.10599027,1.223858577,2.158497802
2,1,0.074088216,-0.10004054,0.028828204,-0.570187867,-0.131856665,-0.230725303,0.788609743,0.202121049,-0.580725312,-0.203523194,0.936061862,-1.097770183,1.204768689,2.158497802
2,1,0.045992911,-0.038409293,-0.027860343,-0.453726739,-0.132593662,-0.196159184,0.786004364,0.211321056,-0.580982566,-0.212926346,0.934269343,-1.092383674,1.17709719,2.158497802
2,1,0.045992911,-0.038409293,-0.027860343,-0.453726739,-0.132593662,-0.196159184,0.786004364,0.211321056,-0.580982566,-0.212926346,0.934269343,-1.092383674,1.149425692,2.158497802
3,1,-0.018621981,0.00851506,0.050745726,-0.336519092,-0.043141257,-0.246913448,0.784152031,0.218397498,-0.580868542,-0.220172031,0.933235028,-1.088299557,1.124570316,2.158497802
3,1,-0.018621981,0.00851506,0.050745726,-0.336519092,-0.043141257,-0.246913448,0.784152031,0.218397498,-0.580868542,-0.220172031,0.933235028,-1.088299557,1.09971494,2.158497802
3,1,-0.071316242,5.40E-05,0.034872293,-0.186091587,0.045907732,-0.185244262,0.784691691,0.221990988,-0.578773737,-0.223855929,0.935290837,-1.086191533,1.067376153,2.158497802
3,1,-0.071316242,5.40E-05,0.034872293,-0.186091587,0.045907732,-0.185244262,0.784691691,0.221990988,-0.578773737,-0.223855929,0.935290837,-1.086191533,1.035037366,2.158497802
3,1,-0.081045032,0.057884961,-0.03011632,0.014698242,0.013351968,-0.083523765,0.78622663,0.222479165,-0.576498747,-0.224356638,0.93810329,-1.086162319,1.004524517,2.158497802
3,1,-0.081045032,0.057884961,-0.03011632,0.014698242,0.013351968,-0.083523765,0.78622663,0.222479165,-0.576498747,-0.224356638,0.93810329,-1.086162319,0.974011668,2.158497802
3,1,-0.109798014,0.034645855,0.04316783,0.354727089,-0.061528455,0.14592424,0.786720395,0.217886269,-0.577578366,-0.219648185,0.937510369,-1.088921404,0.945151883,2.158497802
3,1,-0.109798014,0.034645855,0.04316783,0.354727089,-0.061528455,0.14592424,0.786720395,0.217886269,-0.577578366,-0.219648185,0.937510369,-1.088921404,0.916292098,2.158497802
3,1,-0.126173675,0.049997643,0.177840352,0.744342089,-0.249876514,0.23504132,0.785976052,0.201176643,-0.58461082,-0.202558975,0.931273527,-1.098191422,0.89175183,2.158497802
3,1,-0.126173675,0.049997643,0.177840352,0.744342089,-0.249876514,0.23504132,0.785976052,0.201176643,-0.58461082,-0.202558975,0.931273527,-1.098191422,0.867211563,2.158497802
3,1,-0.078117013,0.072950959,0.118686914,0.965995967,-0.261368752,0.247982636,0.783695757,0.18687509,-0.592367113,-0.187980238,0.923553056,-1.109431616,0.835267744,2.158497802
3,1,-0.078117013,0.072950959,0.118686914,0.965995967,-0.261368752,0.247982636,0.783695757,0.18687509,-0.592367113,-0.187980238,0.923553056,-1.109431616,0.803323926,2.158497802
3,1,-0.026643097,0.032504156,-0.07037884,0.78000927,0.1099976,0.299107075,0.783567488,0.171566308,-0.597149134,-0.17241933,0.919602237,-1.121086885,0.769182975,2.158497802
3,1,0.010420203,0.044522434,0.043692172,-0.209660992,-0.079850435,-0.167154059,0.80070436,0.16966477,-0.574531496,-0.170489495,0.948400186,-1.090584396,-0.048339613,-0.653721327
3,1,0.010420203,0.044522434,0.043692172,-0.209660992,-0.079850435,-0.167154059,0.80070436,0.16966477,-0.574531496,-0.170489495,0.948400186,-1.090584396,-0.059076399,-0.653721327
3,1,0.003530502,-0.008336246,-0.006204486,0.319810867,-0.14726606,0.008523284,0.798621893,0.16885829,-0.57765913,-0.169671214,0.944590259,-1.093296105,-0.059666528,-0.653721327
3,1,0.003530502,-0.008336246,-0.006204486,0.319810867,-0.14726606,0.008523284,0.798621893,0.16885829,-0.57765913,-0.169671214,0.944590259,-1.093296105,-0.060256657,-0.653721327
3,1,-0.054068506,-0.022323936,0.022639155,0.5157004,-0.041330755,0.139657274,0.797154069,0.162185609,-0.581585169,-0.162905183,0.940494675,-1.099458985,-0.052783723,-0.653721327
3,1,-0.054068506,-0.022323936,0.022639155,0.5157004,-0.041330755,0.139657274,0.797154069,0.162185609,-0.581585169,-0.162905183,0.940494675,-1.099458985,-0.045310789,-0.653721327
3,1,-0.046203911,0.074324012,0.015123188,0.255860865,-0.135284051,0.133458883,0.79714781,0.154328585,-0.583727956,-0.154947865,0.938738888,-1.104158133,-0.039844236,-0.653721327
3,1,-0.046203911,0.074324012,0.015123188,0.255860865,-0.135284051,0.133458883,0.79714781,0.154328585,-0.583727956,-0.154947865,0.938738888,-1.104158133,-0.034377682,-0.653721327
3,1,-0.060962617,-0.002801955,0.01462388,0.418676406,-0.205736026,0.184439451,0.796006501,0.149301186,-0.58658582,-0.149861493,0.93572505,-1.106696481,-0.027295409,-0.653721327
3,1,-0.060962617,-0.002801955,0.01462388,0.418676406,-0.205736026,0.184439451,0.796006501,0.149301186,-0.58658582,-0.149861493,0.93572505,-1.106696481,-0.020213136,-0.653721327
3,1,-0.106961966,0.05550912,0.114618301,0.805941045,-0.124269433,0.214361563,0.794673204,0.139589399,-0.590770185,-0.140046745,0.931524411,-1.113821377,-0.007484845,-0.653721327
3,1,-0.106961966,0.05550912,0.114618301,0.805941045,-0.124269433,0.214361563,0.794673204,0.139589399,-0.590770185,-0.140046745,0.931524411,-1.113821377,0.005243446,0.496474637
3,1,-0.07591486,0.039836377,-0.042053461,0.6800313,0.119929515,0.353992462,0.795501769,0.125751674,-0.592759311,-0.126085481,0.930413592,-1.123829648,0.013312121,0.496474637
3,1,-0.07591486,0.039836377,-0.042053461,0.6800313,0.119929515,0.353992462,0.795501769,0.125751674,-0.592759311,-0.126085481,0.930413592,-1.123829648,0.021380797,0.496474637
3,1,0.031621933,0.033105761,-0.080783606,0.258273929,-0.112702802,0.379249424,0.796409011,0.116674192,-0.593396902,-0.116940538,0.930444602,-1.126873686,0.022015854,0.496474637
3,1,0.031621933,0.033105761,-0.080783606,0.258273929,-0.112702802,0.379249424,0.796409011,0.116674192,-0.593396902,-0.116940538,0.930444602,-1.126873686,0.022650911,0.496474637
3,1,-0.036023319,-0.018743783,0.023422241,-0.447102606,-0.114900663,0.383081436,0.795374215,0.112279817,-0.595628381,-0.112517078,0.928021634,-1.121303701,0.014858046,0.496474637
3,1,-0.036023319,-0.018743783,0.023422241,-0.447102606,-0.114900663,0.383081436,0.795374215,0.112279817,-0.595628381,-0.112517078,0.928021634,-1.121303701,0.00706518,0.496474637
3,1,-0.016709447,0.022188067,-0.023499012,-0.90220809,-0.042656828,0.318955451,0.795637429,0.117337935,-0.594300389,-0.117608875,0.929250873,-1.105731724,-0.007217307,-0.912391138
3,1,-0.016709447,0.022188067,-0.023499012,-0.90220809,-0.042656828,0.318955451,0.795637429,0.117337935,-0.594300389,-0.117608875,0.929250873,-1.105731724,-0.021499794,-0.912391138
3,1,-0.016428828,0.169700801,-0.001720369,-0.94013232,-0.074611083,0.344870299,0.795036554,0.124274723,-0.59369421,-0.124596856,0.929377925,-1.086542281,-0.042049895,-0.961459332
3,1,-0.016428828,0.169700801,-0.001720369,-0.94013232,-0.074611083,0.344870299,0.795036554,0.124274723,-0.59369421,-0.124596856,0.929377925,-1.086542281,-0.062599996,-0.961459332
3,1,-0.041205525,0.187064677,-0.005749345,-1.101905823,-0.11073371,0.444574416,0.794102132,0.130531386,-0.593602121,-0.130904929,0.928888438,-1.065841728,-0.091745118,-1.153380304
3,1,-0.067585409,0.204959422,-0.054052413,-1.386292458,-0.156626582,0.695369184,0.793962121,0.136089385,-0.592540264,-0.136512993,0.929662274,-1.039083235,-0.128502896,-1.534013155
3,1,-0.067585409,0.204959422,-0.054052413,-1.386292458,-0.156626582,0.695369184,0.793962121,0.136089385,-0.592540264,-0.136512993,0.929662274,-1.039083235,-0.164635437,-1.534013155
3,1,-0.067585409,0.204959422,-0.054052413,-1.386292458,-0.156626582,0.695369184,0.793962121,0.136089385,-0.592540264,-0.136512993,0.929662274,-1.039083235,-0.200767979,-1.534013155
3,1,-0.130318403,0.294350058,-0.013385773,-1.925521493,-0.3437168,1.24090457,0.793721855,0.140143558,-0.5919168,-0.140606407,0.93002181,-1.001309887,-0.250495293,-2.311010447
3,1,-0.130318403,0.294350058,-0.013385773,-1.925521493,-0.3437168,1.24090457,0.793721855,0.140143558,-0.5919168,-0.140606407,0.93002181,-1.001309887,-0.300222606,-2.311010447
3,1,-0.217904806,0.449022382,0.066162825,-2.721287966,-0.858043134,1.802312732,0.791128814,0.143948972,-0.594469488,-0.144450805,0.926387476,-0.942972231,-0.371629977,-3.347823675
3,1,-0.204938293,0.475486159,0.281027734,-1.772492886,-0.998767614,2.143425941,0.785395205,0.140571848,-0.602821827,-0.141038976,0.916164122,-0.883238364,-0.432573074,-3.347823675
3,1,-0.192198455,0.486618757,0.204097986,-1.376582503,-1.239107847,2.785730362,0.778285682,0.120345078,-0.616269946,-0.120637478,0.901057023,-0.828365913,-0.497125297,-3.347823675
3,1,-0.192198455,0.486618757,0.204097986,-1.376582503,-1.239107847,2.785730362,0.778285682,0.120345078,-0.616269946,-0.120637478,0.901057023,-0.828365913,-0.561677521,-3.347823675
3,1,-0.250789881,0.342459381,0.144716442,-1.512428403,-1.512914538,3.243550777,0.76754117,0.091408849,-0.634448707,-0.091536629,0.880045605,-0.767947769,-0.630742692,-3.357011439
3,1,-0.250789881,0.342459381,0.144716442,-1.512428403,-1.512914538,3.243550777,0.76754117,0.091408849,-0.634448707,-0.091536629,0.880045605,-0.767947769,-0.699807862,-3.357011439
4,1,-0.280244529,0.299642324,0.163448393,-1.8047508,-1.859176636,3.636527777,0.751066864,0.060449757,-0.65745312,-0.060486633,0.851763027,-0.697816888,-0.771970423,-3.85872183
4,1,-0.284012198,0.243826687,0.197760105,-2.076879501,-2.230996847,3.997053623,0.72703284,0.03025174,-0.685935915,-0.030256356,0.814475487,-0.617713823,-0.853342023,-4.319173771
4,1,-0.277382374,0.102670491,0.266548574,-1.881901503,-2.630954504,4.170033455,0.694295347,0.000479116,-0.719690084,-0.000479116,0.767440399,-0.530997251,-0.927635888,-4.319173771
4,1,-0.277382374,0.102670491,0.266548574,-1.881901503,-2.630954504,4.170033455,0.694295347,0.000479116,-0.719690084,-0.000479116,0.767440399,-0.530997251,-1.001929753,-4.319173771
4,1,-0.277382374,0.102670491,0.266548574,-1.881901503,-2.630954504,4.170033455,0.694295347,0.000479116,-0.719690084,-0.000479116,0.767440399,-0.530997251,-1.08315468,-4.319173771
4,1,-0.24001646,-0.061978608,0.291471958,-1.174032807,-3.091384888,4.235455036,0.650749803,-0.033342723,-0.758559823,0.033348903,0.709048408,-0.448172647,-1.155675301,-4.319173771
4,1,-0.24001646,-0.061978608,0.291471958,-1.174032807,-3.091384888,4.235455036,0.650749803,-0.033342723,-0.758559823,0.033348903,0.709048408,-0.448172647,-1.237411551,-4.319173771
4,1,-0.153343916,-0.253720313,0.117669642,-0.526304781,-3.392627239,4.084629059,0.595327497,-0.072771505,-0.800180972,0.072835889,0.639644285,-0.372175596,-1.308369942,-4.319173771
4,1,-0.093147576,-0.227126002,-0.012760758,-0.498163164,-3.34438467,3.822918177,0.532659411,-0.109512724,-0.839214504,0.109732814,0.565552663,-0.301848576,-1.376258304,-4.319173771
4,1,-0.093147576,-0.227126002,-0.012760758,-0.498163164,-3.34438467,3.822918177,0.532659411,-0.109512724,-0.839214504,0.109732814,0.565552663,-0.301848576,-1.444146666,-4.319173771
4,1,-0.093147576,-0.227126002,-0.012760758,-0.498163164,-3.34438467,3.822918177,0.532659411,-0.109512724,-0.839214504,0.109732814,0.565552663,-0.301848576,-1.503304416,-4.319173771
4,1,-0.072331667,-0.024393693,-0.057055473,-0.986866474,-3.361410141,3.683146715,0.466357291,-0.134403706,-0.874326348,0.134811689,0.490001749,-0.228831305,-1.564889598,-4.319173771
4,1,-0.072331667,-0.024393693,-0.057055473,-0.986866474,-3.361410141,3.683146715,0.466357291,-0.134403706,-0.874326348,0.134811689,0.490001749,-0.228831305,-1.616806495,-4.319173771
4,1,-0.136159539,-0.496878296,-0.17385149,-0.912807703,-3.320699215,3.015028954,0.396365821,-0.145805731,-0.906440735,0.146327362,0.412223368,-0.158424027,-1.656360496,-4.319173771
4,1,-0.256293535,-0.639937699,-0.190739393,-1.349206924,-2.427258968,2.660278082,0.334783167,-0.146560431,-0.930827737,0.14709026,0.345256149,-0.098860044,-1.694730315,-4.319173771
4,1,-0.256293535,-0.639937699,-0.190739393,-1.349206924,-2.427258968,2.660278082,0.334783167,-0.146560431,-0.930827737,0.14709026,0.345256149,-0.098860044,-1.733100134,-4.319173771
4,1,-0.256293535,-0.639937699,-0.190739393,-1.349206924,-2.427258968,2.660278082,0.334783167,-0.146560431,-0.930827737,0.14709026,0.345256149,-0.098860044,-1.782836599,-4.319173771
4,1,-0.159019828,-0.184597343,-0.116135538,-1.121042967,-1.784076333,2.647943497,0.28876394,-0.136843458,-0.947570205,0.137274184,0.295801074,-0.03852864,-1.832902619,-4.319173771
4,1,-0.159019828,-0.184597343,-0.116135538,-1.121042967,-1.784076333,2.647943497,0.28876394,-0.136843458,-0.947570205,0.137274184,0.295801074,-0.03852864,-1.889188764,-4.319173771
4,1,0.078125432,0.312748522,0.32273227,0.740709782,-2.065840483,2.276851892,0.246900871,-0.146152139,-0.957955897,0.146677512,0.252247369,0.010879631,-1.927627407,-4.319173771
4,1,0.078125432,0.312748522,0.32273227,0.740709782,-2.065840483,2.276851892,0.246900871,-0.146152139,-0.957955897,0.146677512,0.252247369,0.010879631,-1.968017039,-4.319173771
4,1,0.160081834,0.264602065,0.087968349,2.053213358,-2.812983513,1.912454724,0.192700401,-0.184629619,-0.963731527,0.185694995,0.197349752,0.045152491,-1.993041931,-4.319173771
4,1,0.160081834,0.264602065,0.087968349,2.053213358,-2.812983513,1.912454724,0.192700401,-0.184629619,-0.963731527,0.185694995,0.197349752,0.045152491,-2.013707029,-4.319173771
4,1,-0.040908471,-0.557126999,-0.618953824,0.753051043,-2.724648476,1.449815989,0.130507395,-0.220093355,-0.966709256,0.221910169,0.134190406,0.074334007,-2.029882465,-4.319173771
4,1,-0.040908471,-0.557126999,-0.618953824,0.753051043,-2.724648476,1.449815989,0.130507395,-0.220093355,-0.966709256,0.221910169,0.134190406,0.074334007,-2.04784162,-4.319173771
4,1,-0.199158221,-0.818606734,-1.008377075,-0.275320828,-1.555444717,1.20210278,0.082763724,-0.224787921,-0.970886469,0.226725387,0.08503993,0.099476337,-2.068533813,-4.319173771
4,1,-0.199158221,-0.818606734,-1.008377075,-0.275320828,-1.555444717,1.20210278,0.082763724,-0.224787921,-0.970886469,0.226725387,0.08503993,0.099476337,-2.09526824,-4.319173771
4,1,-0.216297328,-0.235970676,-0.395832956,-0.374746114,-0.799784243,0.89700067,0.055744026,-0.219945386,-0.9739182,0.22175848,0.057174487,0.123732699,-2.119569458,-4.319173771
4,1,-0.216297328,-0.235970676,-0.395832956,-0.374746114,-0.799784243,0.89700067,0.055744026,-0.219945386,-0.9739182,0.22175848,0.057174487,0.123732699,-2.140865486,-4.319173771
4,1,-0.093220465,-0.098756194,0.257354081,-0.545929551,-0.725670695,0.597195148,0.03906678,-0.211026475,-0.976699352,0.212624962,0.039977466,0.136775677,-2.15681923,-4.319173771
4,1,-0.093220465,-0.098756194,0.257354081,-0.545929551,-0.725670695,0.597195148,0.03906678,-0.211026475,-0.976699352,0.212624962,0.039977466,0.136775677,-2.165198607,-4.319173771
4,1,0.00344109,0.07317014,0.239063442,0.093540117,-1.000837326,0.894765198,0.019370647,-0.205386281,-0.97848928,0.206858385,0.019793899,0.153606109,-2.177911501,-4.319173771
4,1,0.00344109,0.07317014,0.239063442,0.093540117,-1.000837326,0.894765198,0.019370647,-0.205386281,-0.97848928,0.206858385,0.019793899,0.153606109,-2.179340679,-4.319173771
4,1,0.000337563,0.006686106,-0.043429494,1.087646723,-1.308574677,0.587716818,-0.006929376,-0.217133984,-0.976117194,0.218877438,-0.007098798,0.168909575,-2.173348521,-4.319173771
4,1,0.000337563,0.006686106,-0.043429494,1.087646723,-1.308574677,0.587716818,-0.006929376,-0.217133984,-0.976117194,0.218877438,-0.007098798,0.168909575,-2.161042321,-4.319173771
4,1,-0.129148528,0.026746392,-0.157987356,3.300365448,-0.784406424,0.397282422,-0.030290466,-0.258968353,-0.965410709,0.261953964,-0.03136544,0.177921324,-2.148401976,-4.319173771
4,1,-0.129148528,0.026746392,-0.157987356,3.300365448,-0.784406424,0.397282422,-0.030290466,-0.258968353,-0.965410709,0.261953964,-0.03136544,0.177921324,-2.134780267,-4.319173771
4,1,-0.126887262,-0.00299409,-0.215215743,2.540649176,-0.711228848,0.460653961,-0.047703609,-0.320520908,-0.946039498,0.326279372,-0.050381872,0.191668687,-2.122131705,-4.319173771
4,1,-0.126887262,-0.00299409,-0.215215743,2.540649176,-0.711228848,0.460653961,-0.047703609,-0.320520908,-0.946039498,0.326279372,-0.050381872,0.191668687,-2.105644724,-4.319173771
4,1,-0.158248469,-0.591875434,-0.10684979,-0.478188962,0.204745814,-0.163642094,-0.054336783,-0.334911138,-0.940681696,0.341510907,-0.05769908,0.19409834,-2.072737527,-4.319173771
4,1,-0.158248469,-0.591875434,-0.10684979,-0.478188962,0.204745814,-0.163642094,-0.054336783,-0.334911138,-0.940681696,0.341510907,-0.05769908,0.19409834,-2.039830329,-4.319173771
4,1,-0.16513212,-0.062750459,-0.021467984,-0.388186723,0.713243902,0.326880902,-0.04415727,-0.324805737,-0.944749355,0.330806328,-0.046705675,0.195344683,-2.019616966,-4.319173771
4,1,-0.16513212,-0.062750459,-0.021467984,-0.388186723,0.713243902,0.326880902,-0.04415727,-0.324805737,-0.944749355,0.330806328,-0.046705675,0.195344683,-1.983863656,-4.319173771
4,1,0.170421362,0.28962183,0.082392216,0.394316822,-0.045635998,0.085575558,-0.038905725,-0.325539231,-0.944727778,0.33158198,-0.041158685,0.199979602,-1.939270057,-4.319173771
4,1,0.170421362,0.28962183,0.082392216,0.394316822,-0.045635998,0.085575558,-0.038905725,-0.325539231,-0.944727778,0.33158198,-0.041158685,0.199979602,-1.873940193,-4.319173771
4,1,0.131624267,-0.005256414,-0.003719151,0.373352349,-0.289098978,0.156627089,-0.043779261,-0.332815498,-0.941975176,0.339287702,-0.046442603,0.202607457,-1.81880134,-4.319173771
4,1,0.131624267,-0.005256414,-0.003719151,0.373352349,-0.289098978,0.156627089,-0.043779261,-0.332815498,-0.941975176,0.339287702,-0.046442603,0.202607457,-1.761409548,-4.319173771
4,1,-0.031994805,0.089468628,-0.022478402,0.704454958,-0.059872106,0.121783853,-0.048159432,-0.342182845,-0.938398421,0.349238999,-0.051275895,0.206280872,-1.705218825,-4.319173771
4,1,-0.031994805,0.089468628,-0.022478402,0.704454958,-0.059872106,0.121783853,-0.048159432,-0.342182845,-0.938398421,0.349238999,-0.051275895,0.206280872,-1.64063301,-4.319173771
4,1,-0.024780124,0.07309708,0.016201198,1.001541615,-0.016137602,0.105009764,-0.049118008,-0.358709186,-0.932156205,0.366884679,-0.052644209,0.209538837,-1.576318592,-4.319173771
4,1,-0.024780124,0.07309708,0.016201198,1.001541615,-0.016137602,0.105009764,-0.049118008,-0.358709186,-0.932156205,0.366884679,-0.052644209,0.209538837,-1.501969966,-4.319173771
4,1,0.011029888,-0.033495724,0.033716202,0.848182023,-0.087028176,0.102377713,-0.050961938,-0.37627697,-0.925104618,0.385774651,-0.055032134,0.212902112,-1.417690258,-4.308987717
4,1,0.011029888,-0.033495724,0.033716202,0.848182023,-0.087028176,0.102377713,-0.050961938,-0.37627697,-0.925104618,0.385774651,-0.055032134,0.212902112,-1.333614272,-4.308987717
4,1,-0.016799569,-0.03887713,0.020428717,0.636144042,-0.054482095,0.089395121,-0.053177021,-0.389602751,-0.919446528,0.400200221,-0.057771546,0.215871279,-1.249330436,-4.308987717
4,1,-0.016799569,-0.03887713,0.020428717,0.636144042,-0.054482095,0.089395121,-0.053177021,-0.389602751,-0.919446528,0.400200221,-0.057771546,0.215871279,-1.165046599,-3.873772451
4,1,-0.0217264,-0.016512603,0.004031897,0.620307386,-0.010161166,0.108730733,-0.054414723,-0.400889248,-0.914509118,0.412487298,-0.059431495,0.218772792,-1.090153462,-3.873772451
4,1,-0.0217264,-0.016512603,0.004031897,0.620307386,-0.010161166,0.108730733,-0.054414723,-0.400889248,-0.914509118,0.412487298,-0.059431495,0.218772792,-1.015260325,-3.334879568
4,1,-0.003869075,-0.005197883,0.000842214,0.649186432,-0.005883778,0.143141121,-0.055548396,-0.412371665,-0.909320652,0.425055862,-0.06101198,0.222358251,-0.951838657,-3.228718614
4,1,-0.003869075,-0.005197883,0.000842214,0.649186432,-0.005883778,0.143141121,-0.055548396,-0.412371665,-0.909320652,0.425055862,-0.06101198,0.222358251,-0.892967639,-3.228718614
4,1,0.013995882,0.010904133,0.007373691,0.611345589,-0.023374002,0.133593902,-0.056781251,-0.42359069,-0.904072344,0.437405549,-0.062723702,0.226319194,-0.83373251,-3.228718614
4,1,0.013995882,0.010904133,0.007373691,0.611345589,-0.023374002,0.133593902,-0.056781251,-0.42359069,-0.904072344,0.437405549,-0.062723702,0.226319194,-0.77449738,-3.228718614
4,1,0.019043196,-0.003384143,0.003272474,0.547777236,-0.046884924,0.119392335,-0.058608923,-0.434051931,-0.898979366,0.448985649,-0.065102823,0.229943144,-0.712304715,-3.228718614
4,1,0.019043196,-0.003384143,0.003272474,0.547777236,-0.046884924,0.119392335,-0.058608923,-0.434051931,-0.898979366,0.448985649,-0.065102823,0.229943144,-0.650112051,-2.610573857
4,1,0.005315423,-0.033309311,-0.004378557,0.420488536,-0.051679678,0.114566147,-0.060826585,-0.442258537,-0.894822657,0.458115301,-0.067871723,0.233362308,-0.600005323,-2.588689971
4,1,0.005315423,-0.033309311,-0.004378557,0.420488536,-0.051679678,0.114566147,-0.060826585,-0.442258537,-0.894822657,0.458115301,-0.067871723,0.233362308,-0.550665828,-2.588689971
4,1,-0.003753655,-0.038316071,-0.002573013,0.285877496,-0.018001826,0.115061335,-0.062575974,-0.447734535,-0.89197427,0.464230136,-0.070039711,0.236545242,-0.501470798,-2.588689971
4,1,-0.003753655,-0.038316071,-0.002573013,0.285877496,-0.018001826,0.115061335,-0.062575974,-0.447734535,-0.89197427,0.464230136,-0.070039711,0.236545242,-0.452275768,-2.588689971
4,1,0.003310867,-0.007215172,-0.001667917,0.167029321,-0.004268231,0.100598134,-0.063399665,-0.450606763,-0.890468478,0.467444907,-0.071078158,0.239120729,-0.402466884,-2.588689971
4,1,0.003310867,-0.007215172,-0.001667917,0.167029321,-0.004268231,0.100598134,-0.063399665,-0.450606763,-0.890468478,0.467444907,-0.071078158,0.239120729,-0.352658,-1.696314801
4,1,0.009591818,-0.006752014,-0.004571795,0.145820081,-0.016068093,0.11998339,-0.064050116,-0.452778906,-0.88931936,0.469879558,-0.07189736,0.241476239,-0.320907065,-1.696314801
4,1,0.009591818,-0.006752014,-0.004571795,0.145820081,-0.016068093,0.11998339,-0.064050116,-0.452778906,-0.88931936,0.469879558,-0.07189736,0.241476239,-0.28915613,-0.928077801
4,1,0.003166437,-0.015359581,-0.007499695,0.083248362,-0.023214141,0.107303821,-0.065086283,-0.454928756,-0.888146162,0.472292216,-0.073152529,0.244113054,-0.272397754,-0.928077801
4,1,0.003166437,-0.015359581,-0.007499695,0.083248362,-0.023214141,0.107303821,-0.065086283,-0.454928756,-0.888146162,0.472292216,-0.073152529,0.244113054,-0.255639379,-0.840246717
4,1,-0.004889689,-0.014822543,-0.003052235,0.022787288,-0.003311515,0.095072448,-0.066185415,-0.456213474,-0.887405634,0.473735383,-0.074445214,0.246422702,-0.243254788,-0.840246717
4,1,-0.004889689,-0.014822543,-0.003052235,0.022787288,-0.003311515,0.095072448,-0.066185415,-0.456213474,-0.887405634,0.473735383,-0.074445214,0.246422702,-0.230870197,-0.840246717
4,1,-0.006341472,-6.53E-05,0.007613659,0.042763352,0.01204857,0.095669366,-0.066885106,-0.45673421,-0.887085259,0.474320655,-0.075256338,0.248507246,-0.215929865,-0.840246717
4,1,-0.006341472,-6.53E-05,0.007613659,0.042763352,0.01204857,0.095669366,-0.066885106,-0.45673421,-0.887085259,0.474320655,-0.075256338,0.248507246,-0.200989533,-0.718586281
4,1,-0.001359485,0.002251714,-0.00327307,0.026241675,0.015990496,0.105437472,-0.067289464,-0.457281232,-0.886772811,0.474935652,-0.075736149,0.250763262,-0.188669348,-0.718586281
4,1,-0.001359485,0.002251714,-0.00327307,0.026241675,0.015990496,0.105437472,-0.067289464,-0.457281232,-0.886772811,0.474935652,-0.075736149,0.250763262,-0.176349163,-0.668147965
4,1,0.01021874,-0.007235765,-0.020251632,-0.061549097,0.02965337,0.080092698,-0.067560911,-0.45702523,-0.886884153,0.474647806,-0.076030982,0.252700097,-0.16892826,-0.668147965
4,1,0.01021874,-0.007235765,-0.020251632,-0.061549097,0.02965337,0.080092698,-0.067560911,-0.45702523,-0.886884153,0.474647806,-0.076030982,0.252700097,-0.161507358,-0.668147965
4,1,0.008978717,-0.004535556,-0.032114983,-0.164243206,0.028450206,0.067097217,-0.067709439,-0.455117315,-0.887853444,0.472503951,-0.076114625,0.254097719,-0.149372396,-0.668147965
4,1,0.008978717,-0.004535556,-0.032114983,-0.164243206,0.028450206,0.067097217,-0.067709439,-0.455117315,-0.887853444,0.472503951,-0.076114625,0.254097719,-0.137237434,-0.523344966
4,1,-0.006717294,0.007865071,-0.043411493,-0.204427272,0.065919608,0.054251302,-0.067653671,-0.451786011,-0.889557421,0.468766304,-0.075907052,0.255363795,-0.132580029,-0.523344966
4,1,-0.006717294,0.007865071,-0.043411493,-0.204427272,0.065919608,0.054251302,-0.067653671,-0.451786011,-0.889557421,0.468766304,-0.075907052,0.255363795,-0.127922625,-0.523344966
4,1,-0.024725333,-0.013299316,-0.057273805,-0.167199522,0.148901343,-0.009603737,-0.066064097,-0.448535502,-0.891320109,0.465126088,-0.073984101,0.255578469,-0.123258781,-0.523344966
4,1,-0.024725333,-0.013299316,-0.057273805,-0.167199522,0.148901343,-0.009603737,-0.066064097,-0.448535502,-0.891320109,0.465126088,-0.073984101,0.255578469,-0.118594936,-0.523344966
4,1,-0.046921112,-0.061851054,-0.072863221,-0.450220317,0.1917319,-0.052025601,-0.062911302,-0.443852752,-0.893888652,0.459893595,-0.070263494,0.25476161,-0.112219745,-0.523344966
4,1,-0.046921112,-0.061851054,-0.072863221,-0.450220317,0.1917319,-0.052025601,-0.062911302,-0.443852752,-0.893888652,0.459893595,-0.070263494,0.25476161,-0.105844553,-0.523344966
4,1,-0.062508911,-0.220413268,-0.174834967,-1.375935078,0.011617802,-0.317144781,-0.058996502,-0.429272622,-0.901246071,0.443687255,-0.065367773,0.249759156,-0.100831215,-0.523344966
4,1,-0.062508911,-0.220413268,-0.174834967,-1.375935078,0.011617802,-0.317144781,-0.058996502,-0.429272622,-0.901246071,0.443687255,-0.065367773,0.249759156,-0.095817876,-0.523344966
4,1,-0.228748709,-0.580567479,-0.285769224,-2.868756533,-0.066865616,-0.861979187,-0.055873174,-0.391201109,-0.918607593,0.401936359,-0.060748925,0.234598991,-0.065785676,-0.523344966
4,1,-0.228748709,-0.580567479,-0.285769224,-2.868756533,-0.066865616,-0.861979187,-0.055873174,-0.391201109,-0.918607593,0.401936359,-0.060748925,0.234598991,-0.035753475,-0.163796139
4,1,-0.5756253,-0.782070518,-0.128783703,-2.834778547,0.979107499,-1.362327099,-0.040707476,-0.337327152,-0.940506935,0.344076193,-0.043255485,0.206196264,-0.012798961,-0.163796139
4,1,-0.5756253,-0.782070518,-0.128783703,-2.834778547,0.979107499,-1.362327099,-0.040707476,-0.337327152,-0.940506935,0.344076193,-0.043255485,0.206196264,0.010155553,1.066395221
4,1,-0.689217925,-0.353048593,-0.089062512,-2.979294538,2.552997351,-1.506010294,0.001839913,-0.283286631,-0.959033549,0.287219407,0.001918505,0.174957238,0.025820954,1.066395221
4,1,-0.689217925,-0.353048593,-0.089062512,-2.979294538,2.552997351,-1.506010294,0.001839913,-0.283286631,-0.959033549,0.287219407,0.001918505,0.174957238,0.041486354,1.066395221
4,1,-0.43558073,-0.214838728,-0.094823897,-2.818902254,3.562412977,-1.896173239,0.07048317,-0.225634977,-0.971658885,0.227594778,0.072412179,0.142386072,0.060839637,1.066395221
4,1,-0.43558073,-0.214838728,-0.094823897,-2.818902254,3.562412977,-1.896173239,0.07048317,-0.225634977,-0.971658885,0.227594778,0.072412179,0.142386072,0.08019292,1.066395221
5,1,-0.167492554,-0.275612414,-0.167931795,-1.945559263,3.950909138,-2.408637762,0.152843058,-0.172780976,-0.973029137,0.173652408,0.155806493,0.104281194,0.110292082,1.363667559
5,1,-0.167492554,-0.275612414,-0.167931795,-1.945559263,3.950909138,-2.408637762,0.152843058,-0.172780976,-0.973029137,0.173652408,0.155806493,0.104281194,0.140391244,1.363667559
5,1,-0.043734014,-0.271785438,-0.143318295,-1.10679996,3.861582279,-2.586406231,0.23703073,-0.134142965,-0.962196529,0.134548554,0.241534185,0.059846786,0.17666064,1.708281399
5,1,-0.043734014,-0.271785438,-0.143318295,-1.10679996,3.861582279,-2.586406231,0.23703073,-0.134142965,-0.962196529,0.134548554,0.241534185,0.059846786,0.212930036,1.708281399
5,1,-0.066806495,-0.238424242,-0.111545742,0.230038434,3.454412222,-2.539160013,0.31302011,-0.110253334,-0.943325281,0.110477931,0.320393573,0.012826829,0.256553954,2.086400025
5,1,-0.066806495,-0.238424242,-0.111545742,0.230038434,3.454412222,-2.539160013,0.31302011,-0.110253334,-0.943325281,0.110477931,0.320393573,0.012826829,0.300177873,2.086400025
5,1,-0.220861137,4.88E-05,-0.001897275,2.058713198,3.344985962,-2.400621176,0.380907893,-0.113679998,-0.917598009,0.113926286,0.393467521,-0.041568336,0.354894731,2.606727322
5,1,-0.220861137,4.88E-05,-0.001897275,2.058713198,3.344985962,-2.400621176,0.380907893,-0.113679998,-0.917598009,0.113926286,0.393467521,-0.041568336,0.40961159,2.606727322
5,1,-0.225521415,0.108334914,0.123091757,3.948751211,3.340512991,-2.576782227,0.447747111,-0.147945404,-0.881835997,0.148490492,0.469823756,-0.112244051,0.483810067,3.546127728
5,1,-0.225521415,0.108334914,0.123091757,3.948751211,3.340512991,-2.576782227,0.447747111,-0.147945404,-0.881835997,0.148490492,0.469823756,-0.112244051,0.558008544,3.546127728
5,1,-0.097033322,0.102818027,0.193038702,4.948661327,2.968807459,-2.94674778,0.511931181,-0.198336378,-0.835816503,0.199660281,0.54955446,-0.205842991,0.649070193,4.407491943
5,1,-0.097033322,0.102818027,0.193038702,4.948661327,2.968807459,-2.94674778,0.511931181,-0.198336378,-0.835816503,0.199660281,0.54955446,-0.205842991,0.740131842,4.407491943
5,1,0.076109052,0.134361148,0.163107336,5.882252216,2.211861849,-3.138025284,0.568433225,-0.252584189,-0.78299737,0.255350115,0.627944236,-0.319612291,0.847354586,5.24205181
5,1,0.076109052,0.134361148,0.163107336,5.882252216,2.211861849,-3.138025284,0.568433225,-0.252584189,-0.78299737,0.255350115,0.627944236,-0.319612291,0.95457733,5.24205181
5,1,0.118306458,0.199385405,0.13101244,6.863292694,1.084797144,-3.364772558,0.611577868,-0.310680538,-0.727633297,0.315908921,0.698954604,-0.45469117,1.082856742,6.308733107
5,1,-0.039088428,0.178940654,0.199948788,7.236065388,0.376087308,-3.550163507,0.644918561,-0.366361529,-0.67071557,0.375095654,0.76579266,-0.610846418,1.22316227,6.910038898
5,1,-0.039088428,0.178940654,0.199948788,7.236065388,0.376087308,-3.550163507,0.644918561,-0.366361529,-0.67071557,0.375095654,0.76579266,-0.610846418,1.363612263,6.910038898
5,1,-0.039088428,0.178940654,0.199948788,7.236065388,0.376087308,-3.550163507,0.644918561,-0.366361529,-0.67071557,0.375095654,0.76579266,-0.610846418,1.504062257,6.910038898
5,1,-0.136272311,0.124401033,0.247776389,7.044097424,0.000265256,-3.465533733,0.674841642,-0.411629468,-0.612494886,0.424241317,0.833791169,-0.775647228,1.643550428,6.910038898
5,1,-0.136272311,0.124401033,0.247776389,7.044097424,0.000265256,-3.465533733,0.674841642,-0.411629468,-0.612494886,0.424241317,0.833791169,-0.775647228,1.783038599,6.910038898
5,1,-0.105271876,0.168148816,0.16005826,6.645330429,-0.555973172,-3.195278168,0.70052743,-0.446008116,-0.55708003,0.462300307,0.898971052,-0.939302338,1.918878569,6.910038898
5,1,-0.105271876,0.168148816,0.16005826,6.645330429,-0.555973172,-3.195278168,0.70052743,-0.446008116,-0.55708003,0.462300307,0.898971052,-0.939302338,2.054718539,6.910038898
5,1,-0.051037669,0.297350943,0.004342854,6.109854221,-1.05823946,-2.892836809,0.719504714,-0.470824718,-0.510526299,0.490225376,0.953688079,-1.094833269,2.183945389,6.910038898
5,1,-0.051037669,0.297350943,0.004342854,6.109854221,-1.05823946,-2.892836809,0.719504714,-0.470824718,-0.510526299,0.490225376,0.953688079,-1.094833269,2.313172239,6.910038898
5,1,-0.097909153,0.274690717,0.077375531,5.901462078,-1.134731531,-2.552059174,0.734744489,-0.489378363,-0.469744116,0.511376772,1.001958652,-1.242010603,2.436663436,6.910038898
5,1,-0.097909153,0.274690717,0.077375531,5.901462078,-1.134731531,-2.552059174,0.734744489,-0.489378363,-0.469744116,0.511376772,1.001958652,-1.242010603,2.560154633,6.910038898
5,1,-0.097097635,0.224528074,0.215660572,6.308151245,-1.259337783,-2.034330368,0.747360587,-0.5095281,-0.426419377,0.534636236,1.05229985,-1.389509806,2.686491425,6.910038898
5,1,-0.097097635,0.224528074,0.215660572,6.308151245,-1.259337783,-2.034330368,0.747360587,-0.5095281,-0.426419377,0.534636236,1.05229985,-1.389509806,2.812828217,6.910038898
5,1,0.006718993,0.079624712,-0.056094587,6.795054436,-1.65342164,-1.634569287,0.75441432,-0.53587395,-0.379075527,0.565542562,1.105169409,-1.546756656,2.947518501,6.910038898
5,1,0.006718993,0.079624712,-0.056094587,6.795054436,-1.65342164,-1.634569287,0.75441432,-0.53587395,-0.379075527,0.565542562,1.105169409,-1.546756656,3.082208785,6.910038898
5,1,0.005873203,0.117410481,-0.426831484,5.324629307,-1.581160307,-1.342297196,0.758693278,-0.557500601,-0.337013274,0.591372044,1.152774243,-1.694874648,3.191289929,6.910038898
5,1,0.005873203,0.117410481,-0.426831484,5.324629307,-1.581160307,-1.342297196,0.758693278,-0.557500601,-0.337013274,0.591372044,1.152774243,-1.694874648,3.300371074,6.910038898
5,1,-0.077041566,0.14220345,-0.178474784,3.722820282,-1.329245925,-1.231104612,0.763589561,-0.567171812,-0.308621734,0.603067858,1.186698352,-1.806394208,3.381130334,6.910038898
5,1,-0.077041566,0.14220345,-0.178474784,3.722820282,-1.329245925,-1.231104612,0.763589561,-0.567171812,-0.308621734,0.603067858,1.186698352,-1.806394208,3.461889595,6.910038898
5,1,-0.015316904,-0.003554344,0.112755299,2.585416317,-1.108551383,-1.345686436,0.771109104,-0.566250503,-0.291120887,0.601949614,1.209804801,-1.889328319,3.523436079,6.910038898
5,1,-0.015316904,-0.003554344,0.112755299,2.585416317,-1.108551383,-1.345686436,0.771109104,-0.566250503,-0.291120887,0.601949614,1.209804801,-1.889328319,3.584982563,6.910038898
5,1,0.024892092,-0.0242486,-0.222037315,1.934127927,-1.046115875,-1.145345688,0.779255092,-0.558495641,-0.284331352,0.592571128,1.220931053,-1.948451902,3.634267954,6.910038898
5,1,0.024892092,-0.0242486,-0.222037315,1.934127927,-1.046115875,-1.145345688,0.779255092,-0.558495641,-0.284331352,0.592571128,1.220931053,-1.948451902,3.683553345,6.910038898
5,1,-0.201816261,0.199271321,-0.412515223,2.344684124,-0.70700717,-0.736962557,0.784558475,-0.555575132,-0.275326252,0.589054512,1.23329194,-2.002825181,3.732463629,6.910038898
5,1,-0.201816261,0.199271321,-0.412515223,2.344684124,-0.70700717,-0.736962557,0.784558475,-0.555575132,-0.275326252,0.589054512,1.23329194,-2.002825181,3.781373914,6.910038898
5,1,-0.223873973,0.03580898,-0.438744724,2.046459436,-0.168657526,-0.590800762,0.789159894,-0.558204591,-0.256192386,0.592220287,1.256890611,-2.061615812,3.811343396,6.910038898
5,1,-0.223873973,0.03580898,-0.438744724,2.046459436,-0.168657526,-0.590800762,0.789159894,-0.558204591,-0.256192386,0.592220287,1.256890611,-2.061615812,3.841312879,6.910038898
5,1,-0.163085163,-0.046299577,-0.380869508,0.944397926,0.491992235,-0.511111379,0.796150565,-0.556769252,-0.23696515,0.590491391,1.281507337,-2.09863973,3.833729025,6.910038898
5,1,-0.163085163,-0.046299577,-0.380869508,0.944397926,0.491992235,-0.511111379,0.796150565,-0.556769252,-0.23696515,0.590491391,1.281507337,-2.09863973,3.826145172,6.910038898
5,1,-0.051558137,-0.014349818,-0.0768435,0.777734756,0.320359021,-0.319597512,0.802787542,-0.553700089,-0.221243292,0.586801086,1.301878125,-2.119696193,3.815170903,6.910038898
5,1,-0.051558137,-0.014349818,-0.0768435,0.777734756,0.320359021,-0.319597512,0.802787542,-0.553700089,-0.221243292,0.586801086,1.301878125,-2.119696193,3.804196633,6.910038898
5,1,0.014051735,-0.071451604,0.073625922,0.969488144,-0.032611638,-0.25049293,0.806620419,-0.552842259,-0.209115148,0.585771313,1.317132303,-2.14190143,3.806932977,6.910038898
5,1,0.014051735,-0.071451604,0.073625922,0.969488144,-0.032611638,-0.25049293,0.806620419,-0.552842259,-0.209115148,0.585771313,1.317132303,-2.14190143,3.80966932,6.910038898
5,1,-0.069559634,-0.294527292,0.071995735,0.271157384,-0.162524253,-0.185658872,0.808383763,-0.552422941,-0.203334406,0.585268197,1.324376278,-2.159839019,3.799805095,6.910038898
5,1,-0.069559634,-0.294527292,0.071995735,0.271157384,-0.162524253,-0.185658872,0.808383763,-0.552422941,-0.203334406,0.585268197,1.324376278,-2.159839019,3.78994087,6.910038898
5,1,-0.110032797,-0.238287807,0.008493066,-0.8715415,-0.061151803,-0.183818087,0.810236871,-0.547932506,-0.208053753,0.579890681,1.319445424,-2.153892038,3.749979439,6.910038898
5,1,-0.110032797,-0.238287807,0.008493066,-0.8715415,-0.061151803,-0.183818087,0.810236871,-0.547932506,-0.208053753,0.579890681,1.319445424,-2.153892038,3.710018009,6.910038898
5,1,-0.117931247,-0.048244596,0.012414813,-1.613708735,-0.096586399,-0.115891293,0.811375678,-0.540160894,-0.223373771,0.570628262,1.302148891,-2.125391712,3.651227086,6.910038898
5,1,-0.117931247,-0.048244596,0.012414813,-1.613708735,-0.096586399,-0.115891293,0.811375678,-0.540160894,-0.223373771,0.570628262,1.302148891,-2.125391712,3.592436163,6.910038898
5,1,-0.13186419,0.027731478,0.049165905,-1.836950183,0.028025694,0.002562862,0.81172812,-0.530870736,-0.243462235,0.55962769,1.279403057,-2.08476543,3.520576041,6.910038898
5,1,-0.13186419,0.027731478,0.049165905,-1.836950183,0.028025694,0.002562862,0.81172812,-0.530870736,-0.243462235,0.55962769,1.279403057,-2.08476543,3.448715918,6.910038898
5,1,-0.105408788,0.090651214,0.170840085,-0.974540114,0.084612094,0.086131468,0.811853766,-0.523920596,-0.257683784,0.551447362,1.263452092,-2.051553215,3.379427197,6.910038898
5,1,-0.105408788,0.090651214,0.170840085,-0.974540114,0.084612094,0.086131468,0.811853766,-0.523920596,-0.257683784,0.551447362,1.263452092,-2.051553215,3.310138475,6.910038898
5,1,-0.057607234,0.141191363,0.139506638,-0.191147313,-0.043939006,0.269892663,0.809843659,-0.524549186,-0.262681723,0.552185506,1.257142458,-2.038858668,3.235162978,6.910038898
5,1,-0.057607234,0.141191363,0.139506638,-0.191147313,-0.043939006,0.269892663,0.809843659,-0.524549186,-0.262681723,0.552185506,1.257142458,-2.038858668,3.16018748,6.910038898
5,1,-0.05131346,0.010006666,0.134914041,-0.81691736,-0.045886952,0.24627474,0.806845605,-0.526634574,-0.267686993,0.554636823,1.250453621,-2.027919792,3.05801994,6.910038898
5,1,-0.05131346,0.010006666,0.134914041,-0.81691736,-0.045886952,0.24627474,0.806845605,-0.526634574,-0.267686993,0.554636823,1.250453621,-2.027919792,2.9558524,6.910038898
5,1,-0.071620345,-0.087845743,0.121005297,-1.680611372,-0.050337493,0.275686502,0.803882897,-0.523585021,-0.282189965,0.551053453,1.233200951,-1.997057194,2.822962269,6.910038898
6,1,-0.071304977,0.086874723,-0.063346028,3.001949072,-0.191833153,-0.444658756,0.80454427,-0.378848672,-0.457364708,0.388551913,1.053878257,-1.478006835,-0.725373875,-3.153464122
6,1,0.015939474,-0.018216789,0.020334125,2.822061062,-0.199622452,-0.365386784,0.806349874,-0.398222953,-0.437285393,0.409578731,1.073882257,-1.538314301,-0.647027958,-3.153464122
6,1,0.015939474,-0.018216789,0.020334125,2.822061062,-0.199622452,-0.365386784,0.806349874,-0.398222953,-0.437285393,0.409578731,1.073882257,-1.538314301,-0.566195333,-3.153464122
6,1,-0.030830681,-0.024156898,0.061430752,2.608542919,-0.263063729,-0.243725583,0.80648917,-0.416940838,-0.419208616,0.43007705,1.091438835,-1.59414722,-0.48934722,-3.153464122
6,1,-0.030830681,-0.024156898,0.061430752,2.608542919,-0.263063729,-0.243725583,0.80648917,-0.416940838,-0.419208616,0.43007705,1.091438835,-1.59414722,-0.435380643,-3.153464122
6,1,-0.196696401,-0.038285494,-0.143101871,1.486738324,0.071687847,-0.252196133,0.807743013,-0.430339009,-0.402938962,0.444868292,1.108072735,-1.638561427,-0.402292934,-3.153464122
6,1,-0.196696401,-0.038285494,-0.143101871,1.486738324,0.071687847,-0.252196133,0.807743013,-0.430339009,-0.402938962,0.444868292,1.108072735,-1.638561427,-0.38539273,-3.153464122
6,1,-0.265209317,-0.11252147,-0.143930376,0.020780077,0.358717918,0.069611616,0.810566604,-0.434395671,-0.392787665,0.449367218,1.119557343,-1.654424429,-0.397252456,-3.153464122
6,1,-0.265209317,-0.11252147,-0.143930376,0.020780077,0.358717918,0.069611616,0.810566604,-0.434395671,-0.392787665,0.449367218,1.119557343,-1.654424429,-0.396827032,-3.153464122
6,1,-0.214443088,0.038036674,-0.019464254,-0.938518226,0.351625234,0.288932353,0.811619461,-0.433724105,-0.391353428,0.448621772,1.121499299,-1.641565472,-0.413621172,-3.153464122
6,1,-0.214443088,0.038036674,-0.019464254,-0.938518226,0.351625234,0.288932353,0.811619461,-0.433724105,-0.391353428,0.448621772,1.121499299,-1.641565472,-0.417258388,-3.153464122
6,1,-0.163484335,-0.003410995,0.158700407,-1.554685831,0.239563391,0.403422982,0.811167181,-0.42940101,-0.397017449,0.443829426,1.115632569,-1.614510718,-0.430832448,-3.153464122
6,1,-0.163484335,-0.003410995,0.158700407,-1.554685831,0.239563391,0.403422982,0.811167181,-0.42940101,-0.397017449,0.443829426,1.115632569,-1.614510718,-0.444202071,-3.153464122
6,1,-0.124873459,-0.10022068,0.111400664,-2.446605921,0.230014458,0.647888243,0.8084144,-0.421840072,-0.410508692,0.435473856,1.100932282,-1.569408758,-0.473906087,-3.153464122
6,1,-0.124873459,-0.10022068,0.111400664,-2.446605921,0.230014458,0.647888243,0.8084144,-0.421840072,-0.410508692,0.435473856,1.100932282,-1.569408758,-0.506827752,-3.153464122
6,1,-0.100053072,-0.129056752,-0.041098297,-2.815214872,0.367535114,0.645304918,0.805368185,-0.410048038,-0.428068876,0.422506719,1.082252244,-1.51063684,-0.546816657,-3.153464122
6,1,-0.100053072,-0.129056752,-0.041098297,-2.815214872,0.367535114,0.645304918,0.805368185,-0.410048038,-0.428068876,0.422506719,1.082252244,-1.51063684,-0.580951693,-3.153464122
6,1,-0.133180261,0.083942801,-0.214046478,-2.762214422,0.539871573,0.742934167,0.803827226,-0.396149427,-0.443765163,0.407319344,1.066368829,-1.448949349,-0.616480224,-3.153464122
6,1,-0.133180261,0.083942801,-0.214046478,-2.762214422,0.539871573,0.742934167,0.803827226,-0.396149427,-0.443765163,0.407319344,1.066368829,-1.448949349,-0.634574345,-3.153464122
6,1,-0.180285692,0.347438425,-0.295801699,-1.92466712,0.752280533,1.030796289,0.802806616,-0.388816923,-0.452021301,0.399347121,1.057988186,-1.394406947,-0.643461976,-3.153464122
6,1,-0.180285692,0.347438425,-0.295801699,-1.92466712,0.752280533,1.030796289,0.802806616,-0.388816923,-0.452021301,0.399347121,1.057988186,-1.394406947,-0.641917924,-3.153464122
6,1,-0.198999405,0.421047926,-0.180265784,-0.685821295,0.939580977,1.355446458,0.801119149,-0.395913243,-0.448844016,0.40706213,1.060101545,-1.35646145,-0.62489836,-3.153464122
6,1,-0.198999405,0.421047926,-0.180265784,-0.685821295,0.939580977,1.355446458,0.801119149,-0.395913243,-0.448844016,0.40706213,1.060101545,-1.35646145,-0.604674183,-3.153464122
6,1,-0.14690876,0.152016073,-0.136818349,-0.39783901,1.137967825,1.601680517,0.798176944,-0.416462332,-0.435284883,0.429550653,1.071531052,-1.333637356,-0.583627064,-3.153464122
6,1,-0.14690876,0.152016073,-0.136818349,-0.39783901,1.137967825,1.601680517,0.798176944,-0.416462332,-0.435284883,0.429550653,1.071531052,-1.333637356,-0.565154326,-3.153464122
6,1,-0.088611066,-0.028161287,-0.180663943,-1.420525193,1.325975895,1.835878372,0.794215798,-0.436052918,-0.42317763,0.451207947,1.081235256,-1.298453803,-0.566574547,-3.153464122
6,1,-0.088611066,-0.028161287,-0.180663943,-1.420525193,1.325975895,1.835878372,0.794215798,-0.436052918,-0.42317763,0.451207947,1.081235256,-1.298453803,-0.568583068,-3.153464122
6,1,-0.077452779,0.165055811,-0.252427399,-2.493368864,1.448781371,2.237866163,0.788032115,-0.451123565,-0.418918967,0.468023879,1.08218839,-1.237600398,-0.592043927,-3.555918738
6,1,-0.077452779,0.165055811,-0.252427399,-2.493368864,1.448781371,2.237866163,0.788032115,-0.451123565,-0.418918967,0.468023879,1.08218839,-1.237600398,-0.6146811,-3.555918738
6,1,-0.094456911,0.37533474,-0.186481655,-1.843671918,1.449022532,2.68077755,0.777509511,-0.470224917,-0.417573482,0.489545616,1.077937884,-1.165425038,-0.630885111,-3.555918738
6,1,-0.094456911,0.37533474,-0.186481655,-1.843671918,1.449022532,2.68077755,0.777509511,-0.470224917,-0.417573482,0.489545616,1.077937884,-1.165425038,-0.638308453,-3.555918738
6,1,-0.108625114,0.360165894,-0.081112981,-0.461513579,1.351416111,3.122548819,0.760809302,-0.505608141,-0.406853408,0.530086678,1.07972586,-1.111149901,-0.627143192,-3.555918738
6,1,-0.108625114,0.360165894,-0.081112981,-0.461513579,1.351416111,3.122548819,0.760809302,-0.505608141,-0.406853408,0.530086678,1.07972586,-1.111149901,-0.610170518,-3.555918738
6,1,-0.134209037,-0.049110174,-0.017201722,-0.495608717,1.341941953,3.254031897,0.737427831,-0.551409662,-0.3900612,0.584053042,1.084259181,-1.069505807,-0.594595376,-3.555918738
6,1,-0.134209037,-0.049110174,-0.017201722,-0.495608717,1.341941953,3.254031897,0.737427831,-0.551409662,-0.3900612,0.584053042,1.084259181,-1.069505807,-0.581185068,-3.555918738
6,1,-0.107562542,-0.157891929,0.002195716,-2.165129423,1.48502183,3.302226305,0.710949421,-0.588944077,-0.384312242,0.629751632,1.075228038,-1.004537616,-0.593940185,-3.682978317
6,1,-0.107562542,-0.157891929,0.002195716,-2.165129423,1.48502183,3.302226305,0.710949421,-0.588944077,-0.384312242,0.629751632,1.075228038,-1.004537616,-0.646945945,-3.682978317
6,1,-0.02853024,0.034328699,0.101542771,-4.013905525,1.293899179,3.513363361,0.681264341,-0.611944437,-0.401749939,0.658516803,1.037975698,-0.894557172,-0.725048512,-4.937818621
6,1,-0.02853024,0.034328699,0.101542771,-4.013905525,1.293899179,3.513363361,0.681264341,-0.611944437,-0.401749939,0.658516803,1.037975698,-0.894557172,-0.803151078,-4.937818621
6,1,0.015123427,-0.204683125,0.176221013,-4.912114143,0.570996583,3.38162303,0.646217108,-0.620216608,-0.444674134,0.669018794,0.968088924,-0.751104894,-0.883140353,-5.032154052
6,1,0.015123427,-0.204683125,0.176221013,-4.912114143,0.570996583,3.38162303,0.646217108,-0.620216608,-0.444674134,0.669018794,0.968088924,-0.751104894,-0.990067185,-5.032154052
6,1,-0.018136859,-0.502383471,0.210940123,-6.377084732,0.070129544,3.012022734,0.609500885,-0.606696069,-0.510322213,0.651897732,0.873734091,-0.58826687,-1.145532784,-5.466488214
6,1,-0.018136859,-0.502383471,0.210940123,-6.377084732,0.070129544,3.012022734,0.609500885,-0.606696069,-0.510322213,0.651897732,0.873734091,-0.58826687,-1.300998383,-5.466488214
6,1,-0.080014229,-0.644333899,0.314275444,-7.367168427,-0.249056682,2.866894245,0.574317396,-0.564675689,-0.592706501,0.600040227,0.769642188,-0.414303181,-1.46292789,-5.789683589
6,1,-0.080014229,-0.644333899,0.314275444,-7.367168427,-0.249056682,2.866894245,0.574317396,-0.564675689,-0.592706501,0.600040227,0.769642188,-0.414303181,-1.624857396,-5.789683589
6,1,-0.052450359,-0.115259767,0.452915192,-7.398472309,-0.606938183,2.942498684,0.537873209,-0.501831353,-0.677390397,0.525714766,0.671094505,-0.245675691,-1.791016587,-5.789683589
6,1,-0.052450359,-0.115259767,0.452915192,-7.398472309,-0.606938183,2.942498684,0.537873209,-0.501831353,-0.677390397,0.525714766,0.671094505,-0.245675691,-1.957175779,-5.789683589
6,1,0.047075957,0.275792003,0.48017025,-6.134562969,-1.294874549,2.592897415,0.498314321,-0.433670491,-0.750741541,0.448562286,0.585989555,-0.103373175,-2.098940455,-5.789683589
6,1,0.047075957,0.275792003,0.48017025,-6.134562969,-1.294874549,2.592897415,0.498314321,-0.433670491,-0.750741541,0.448562286,0.585989555,-0.103373175,-2.240705132,-5.789683589
6,1,0.065772742,-0.161259145,0.090415478,-4.815750599,-1.752034187,1.88902092,0.455646247,-0.371024698,-0.809152186,0.380112231,0.512857001,-0.000458569,-2.355984812,-5.789683589
6,1,0.065772742,-0.161259145,0.090415478,-4.815750599,-1.752034187,1.88902092,0.455646247,-0.371024698,-0.809152186,0.380112231,0.512857001,-0.000458569,-2.471264493,-5.789683589
6,1,-0.164874405,-0.886246324,-0.210628033,-4.798722267,-1.715851784,2.040181875,0.413603991,-0.308101654,-0.856741011,0.313196974,0.449764248,0.081262021,-2.585641743,-5.789683589
6,1,-0.164874405,-0.886246324,-0.210628033,-4.798722267,-1.715851784,2.040181875,0.413603991,-0.308101654,-0.856741011,0.313196974,0.449764248,0.081262021,-2.700018994,-5.789683589
6,1,-0.23081252,-0.173503816,0.087658763,-4.253114223,-1.122832537,2.470514536,0.375691086,-0.24485904,-0.893812239,0.2473743,0.397903711,0.165250774,-2.816953254,-5.789683589
6,1,-0.23081252,-0.173503816,0.087658763,-4.253114223,-1.122832537,2.470514536,0.375691086,-0.24485904,-0.893812239,0.2473743,0.397903711,0.165250774,-2.933887515,-5.789683589
6,1,-0.030422032,0.513641179,0.31167984,-2.092419863,-1.064068556,1.432845354,0.346947044,-0.201123729,-0.916066051,0.202504957,0.362041891,0.228878584,-2.995811565,-5.789683589
6,1,-0.030422032,0.513641179,0.31167984,-2.092419863,-1.064068556,1.432845354,0.346947044,-0.201123729,-0.916066051,0.202504957,0.362041891,0.228878584,-3.057735615,-5.789683589
6,1,0.160873592,0.206884474,0.216099143,-1.019576669,-0.638312638,0.717933595,0.32600075,-0.183505997,-0.92738831,0.184551829,0.338033304,0.256631995,-3.072030161,-5.789683589
6,1,0.738551557,-0.471139848,-0.751946449,-1.786407471,-0.816905499,3.139993429,0.334305972,-0.160556927,-0.928687811,0.161254874,0.345534944,0.294686364,-3.136346081,-5.789683589
6,1,0.738551557,-0.471139848,-0.751946449,-1.786407471,-0.816905499,3.139993429,0.334305972,-0.160556927,-0.928687811,0.161254874,0.345534944,0.294686364,-3.183442438,-5.789683589
6,1,0.738551557,-0.471139848,-0.751946449,-1.786407471,-0.816905499,3.139993429,0.334305972,-0.160556927,-0.928687811,0.161254874,0.345534944,0.294686364,-3.230538794,-5.789683589
6,1,0.605997682,-0.570888758,-1.404734612,1.735873461,-5.264323235,1.453727484,0.241610497,-0.18769981,-0.952046812,0.188819809,0.248533188,0.349779459,-3.199585875,-5.789683589
6,1,0.605997682,-0.570888758,-1.404734612,1.735873461,-5.264323235,1.453727484,0.241610497,-0.18769981,-0.952046812,0.188819809,0.248533188,0.349779459,-3.168632956,-5.789683589
6,1,-1.035069823,0.395971298,0.461358309,0.338392109,0.348426223,-0.374853522,0.194232374,-0.211932659,-0.957788229,0.213552126,0.200079308,0.351732947,-3.114797383,-5.789683589
6,1,-1.035069823,0.395971298,0.461358309,0.338392109,0.348426223,-0.374853522,0.194232374,-0.211932659,-0.957788229,0.213552126,0.200079308,0.351732947,-3.060961811,-5.789683589
6,1,-0.276459038,-0.370979786,0.269990683,-0.957033098,2.691739321,-0.08878804,0.234342456,-0.206151083,-0.95004493,0.207639909,0.241837015,0.348239111,-3.020973797,-5.789683589
6,1,-0.276459038,-0.370979786,0.269990683,-0.957033098,2.691739321,-0.08878804,0.234342456,-0.206151083,-0.95004493,0.207639909,0.241837015,0.348239111,-2.980985784,-5.789683589
6,1,0.350078136,0.014097691,-0.01354593,-0.743706703,0.780861616,0.107062533,0.269868642,-0.187206566,-0.944523513,0.188317666,0.278304334,0.353584382,-2.934667931,-5.789683589
6,1,0.350078136,0.014097691,-0.01354593,-0.743706703,0.780861616,0.107062533,0.269868642,-0.187206566,-0.944523513,0.188317666,0.278304334,0.353584382,-2.888350078,-5.789683589
6,1,0.41332081,0.209164113,0.090534151,0.409839451,-1.198369026,0.157950744,0.26355657,-0.184854776,-0.946766436,0.185924094,0.271501649,0.357814364,-2.838678589,-5.789683589
6,1,0.41332081,0.209164113,0.090534151,0.409839451,-1.198369026,0.157950744,0.26355657,-0.184854776,-0.946766436,0.185924094,0.271501649,0.357814364,-2.789007101,-5.789683589
6,1,0.124626562,0.126101494,0.151543021,0.751728237,-1.622316599,-0.176008478,0.234700471,-0.196625486,-0.951973796,0.197915031,0.241720399,0.354349988,-2.745151573,-5.789683589
6,1,0.124626562,0.126101494,0.151543021,0.751728237,-1.622316599,-0.176008478,0.234700471,-0.196625486,-0.951973796,0.197915031,0.241720399,0.354349988,-2.701296046,-5.789683589
6,1,-0.014541298,0.059344843,0.029923201,0.992154241,-1.477271438,-0.195362255,0.206220269,-0.212556064,-0.955140352,0.214190065,0.2126417,0.345904186,-2.657418893,-5.789683589
6,1,-0.014541298,0.059344843,0.029923201,0.992154241,-1.477271438,-0.195362255,0.206220269,-0.212556064,-0.955140352,0.214190065,0.2126417,0.345904186,-2.613541739,-5.789683589
6,1,-0.042920634,0.016216263,-0.094076574,0.95364821,-1.422801733,0.137265444,0.178432271,-0.231027037,-0.956445754,0.233133152,0.184437459,0.341024682,-2.556524095,-5.789683589
6,1,-0.042920634,0.016216263,-0.094076574,0.95364821,-1.422801733,0.137265444,0.178432271,-0.231027037,-0.956445754,0.233133152,0.184437459,0.341024682,-2.499506451,-5.789683589
6,1,-0.084843963,0.019902349,-0.025413871,1.184731007,-1.125211716,0.311905622,0.15304932,-0.252016395,-0.955543637,0.254763335,0.158820909,0.342310959,-2.425050984,-5.789683589
6,1,-0.084843963,0.019902349,-0.025413871,1.184731007,-1.125211716,0.311905622,0.15304932,-0.252016395,-0.955543637,0.254763335,0.158820909,0.342310959,-2.350595516,-5.789683589
6,1,-0.114903331,0.116228163,0.034846067,1.595857739,-0.649453819,0.287081033,0.133334696,-0.27969262,-0.950785935,0.283473942,0.139327679,0.344530655,-2.283480744,-5.789683589
6,1,-0.114903331,0.116228163,0.034846067,1.595857739,-0.649453819,0.287081033,0.133334696,-0.27969262,-0.950785935,0.283473942,0.139327679,0.344530655,-2.216365972,-5.789683589
6,1,-0.040683091,0.084500551,0.0735147,1.894964933,-0.461143911,-0.163517401,0.122881025,-0.314782917,-0.941175818,0.320227951,0.129826815,0.341368802,-2.159631081,-5.789683589
6,1,-0.040683091,0.084500551,0.0735147,1.894964933,-0.461143911,-0.163517401,0.122881025,-0.314782917,-0.941175818,0.320227951,0.129826815,0.341368802,-2.102896191,-5.789683589
6,1,0.054071754,-0.008566737,0.023585737,1.751721978,-0.747068346,-0.030983435,0.112827845,-0.349721313,-0.930034876,0.357273623,0.12072576,0.333883905,-2.045647563,-5.789683589
6,1,0.054071754,-0.008566737,0.023585737,1.751721978,-0.747068346,-0.030983435,0.112827845,-0.349721313,-0.930034876,0.357273623,0.12072576,0.333883905,-1.988398934,-5.789683589
6,1,-0.022316143,-0.091527492,0.026753604,1.393291235,-0.612459242,0.0305195,0.09894488,-0.379065067,-0.920065045,0.388785742,0.107129464,0.330491056,-1.907900548,-5.789683589
6,1,-0.022316143,-0.091527492,0.026753604,1.393291235,-0.612459242,0.0305195,0.09894488,-0.379065067,-0.920065045,0.388785742,0.107129464,0.330491056,-1.827402161,-5.789683589
7,1,-0.101311065,-0.099481225,0.02042377,0.981740952,-0.14053826,-0.071362928,0.092139699,-0.401003122,-0.911431193,0.412611599,0.100751136,0.328492532,-1.724408669,-5.789683589
7,1,-0.101311065,-0.099481225,0.02042377,0.981740952,-0.14053826,-0.071362928,0.092139699,-0.401003122,-0.911431193,0.412611599,0.100751136,0.328492532,-1.621415176,-5.789683589
7,1,-0.021504842,-0.181697309,0.008382857,0.460273176,-0.020020649,-0.019112766,0.091923304,-0.414016902,-0.905615866,0.426862515,0.101157173,0.325716346,-1.519413945,-5.789683589
7,1,0.054924078,-0.117286414,-0.014731109,0.073880419,-0.240840122,0.059310935,0.089514777,-0.418613315,-0.903742254,0.431917876,0.098726993,0.325521183,-1.417694254,-5.789683589
7,1,0.054924078,-0.117286414,-0.014731109,0.073880419,-0.240840122,0.059310935,0.089514777,-0.418613315,-0.903742254,0.431917876,0.098726993,0.325521183,-1.30728788,-5.789683589
7,1,0.054924078,-0.117286414,-0.014731109,0.073880419,-0.240840122,0.059310935,0.089514777,-0.418613315,-0.903742254,0.431917876,0.098726993,0.325521183,-1.196881507,-5.789683589
7,1,0.032865763,-0.033875912,-0.043072999,0.090580463,-0.381436318,0.144745514,0.082703546,-0.419138104,-0.904147863,0.432495797,0.091217419,0.327751014,-1.080357945,-5.789683589
7,1,0.032865763,-0.033875912,-0.043072999,0.090580463,-0.381436318,0.144745514,0.082703546,-0.419138104,-0.904147863,0.432495797,0.091217419,0.327751014,-0.963834384,-5.66807978
7,1,-0.007619493,0.113315493,-0.041365027,0.626105845,-0.422866106,0.086602211,0.074376002,-0.425582319,-0.901858032,0.439605306,0.08228354,0.329812668,-0.847504215,-5.66807978
7,1,-0.007619493,0.113315493,-0.041365027,0.626105845,-0.422866106,0.086602211,0.074376002,-0.425582319,-0.901858032,0.439605306,0.08228354,0.329812668,-0.731174045,-4.441987502
7,1,0.014520161,0.102482915,-0.02833569,1.018191695,-0.52350235,0.080783315,0.065954059,-0.440781027,-0.895188332,0.456468585,0.073543308,0.329929138,-0.637822545,-4.441987502
7,1,0.014520161,0.102482915,-0.02833569,1.018191695,-0.52350235,0.080783315,0.065954059,-0.440781027,-0.895188332,0.456468585,0.073543308,0.329929138,-0.544471045,-3.531097534
7,1,0.088918582,-0.034476191,-0.044815481,1.240751982,-0.655621588,0.405409485,0.054254111,-0.461170256,-0.885651469,0.479313624,0.061182528,0.333342964,-0.482803971,-3.531097534
7,1,0.088918582,-0.034476191,-0.044815481,1.240751982,-0.655621588,0.405409485,0.054254111,-0.461170256,-0.885651469,0.479313624,0.061182528,0.333342964,-0.421136897,-3.531097534
7,1,0.157772616,-0.018458724,-0.159067631,1.560710669,-1.077278614,0.326783836,0.03358753,-0.485534012,-0.87357235,0.506973909,0.038429554,0.3424628,-0.351256339,-3.531097534
7,1,0.157772616,-0.018458724,-0.159067631,1.560710669,-1.077278614,0.326783836,0.03358753,-0.485534012,-0.87357235,0.506973909,0.038429554,0.3424628,-0.281375782,-3.531097534
7,1,0.303198546,-0.094832659,0.082688749,1.406838775,-0.013748565,-0.946716428,0.059624337,-0.512446642,-0.856646597,0.538031522,0.069489951,0.313044542,-0.192715258,-3.531097534
7,1,0.303198546,-0.094832659,0.082688749,1.406838775,-0.013748565,-0.946716428,0.059624337,-0.512446642,-0.856646597,0.538031522,0.069489951,0.313044542,-0.104054735,-3.382120473
7,1,0.177448183,-0.17632544,-0.052541077,0.0049554,-0.585276186,-0.352839649,0.055522438,-0.525573254,-0.84893465,0.553388814,0.065309475,0.298722758,-0.055415757,-3.382120473
7,1,0.177448183,-0.17632544,-0.052541077,0.0049554,-0.585276186,-0.352839649,0.055522438,-0.525573254,-0.84893465,0.553388814,0.065309475,0.298722758,-0.006776779,-3.382120473
7,1,0.158372045,-0.280220926,-0.137768149,-1.075312614,-0.47200498,-0.658447385,0.050245605,-0.517045319,-0.854482055,0.543395442,0.05873478,0.290663608,0.025897251,0.901928641
7,1,0.158372045,-0.280220926,-0.137768149,-1.075312614,-0.47200498,-0.658447385,0.050245605,-0.517045319,-0.854482055,0.543395442,0.05873478,0.290663608,0.108592654,0.901928641
7,1,0.23422955,-0.09113723,-0.094153047,-1.728006482,-0.349457026,-1.215315342,0.054222032,-0.4901869,-0.869929194,0.512304174,0.062248718,0.26941159,0.198931894,1.134841529
7,1,0.23422955,-0.09113723,-0.094153047,-1.728006482,-0.349457026,-1.215315342,0.054222032,-0.4901869,-0.869929194,0.512304174,0.062248718,0.26941159,0.289271134,1.134841529
7,1,0.169817761,-0.011278391,0.018555522,-1.467966437,-0.526159525,-0.847611129,0.05678992,-0.460304826,-0.885942698,0.478338517,0.064013542,0.247338203,0.306996372,1.134841529
7,1,0.169817761,-0.011278391,0.018555522,-1.467966437,-0.526159525,-0.847611129,0.05678992,-0.460304826,-0.885942698,0.478338517,0.064013542,0.247338203,0.324721609,1.134841529
7,1,0.134388328,0.065960407,-0.019575477,-1.36041832,-0.357274383,-0.261159301,0.051920943,-0.434913278,-0.89897424,0.449941969,0.057691671,0.237704318,0.32409382,1.134841529
7,1,0.134388328,0.065960407,-0.019575477,-1.36041832,-0.357274383,-0.261159301,0.051920943,-0.434913278,-0.89897424,0.449941969,0.057691671,0.237704318,0.323466031,1.134841529
7,1,0.291412681,0.044923633,-0.074374855,-1.789393783,-0.282512367,-0.37726593,0.050414164,-0.406293094,-0.912351012,0.41839354,0.055201283,0.232351832,0.344737967,1.134841529
7,1,0.278797805,0.136284143,-0.049809456,-1.914170742,-0.548599422,-0.080226615,0.044001397,-0.371829957,-0.927257478,0.380979541,0.047417699,0.229665516,0.362517489,1.134841529
7,1,0.278797805,0.136284143,-0.049809456,-1.914170742,-0.548599422,-0.080226615,0.044001397,-0.371829957,-0.927257478,0.380979541,0.047417699,0.229665516,0.375360666,1.134841529
7,1,0.153800994,0.190795004,0.05179292,-1.804151535,-0.447161943,0.09613356,0.03426319,-0.336924613,-0.940908015,0.343648605,0.036398944,0.23146286,0.384288659,1.134841529
7,1,0.153800994,0.190795004,0.05179292,-1.804151535,-0.447161943,0.09613356,0.03426319,-0.336924613,-0.940908015,0.343648605,0.036398944,0.23146286,0.380656527,1.134841529
7,1,0.142365456,0.212759018,0.12925595,-1.41387701,-0.275152445,0.31429711,0.02633542,-0.305834174,-0.951720536,0.310814468,0.02766432,0.237071896,0.372012433,1.134841529
7,1,0.142365456,0.212759018,0.12925595,-1.41387701,-0.275152445,0.31429711,0.02633542,-0.305834174,-0.951720536,0.310814468,0.02766432,0.237071896,0.353708788,1.134841529
7,1,0.142365456,0.212759018,0.12925595,-1.41387701,-0.275152445,0.31429711,0.02633542,-0.305834174,-0.951720536,0.310814468,0.02766432,0.237071896,0.335405143,1.134841529
7,1,0.258700699,0.246763051,0.109771311,-0.62650913,-0.330298632,0.347652972,0.019009028,-0.286417425,-0.957916379,0.290485507,0.019841537,0.244811285,0.316294499,1.134841529
7,1,0.258700699,0.246763051,0.109771311,-0.62650913,-0.330298632,0.347652972,0.019009028,-0.286417425,-0.957916379,0.290485507,0.019841537,0.244811285,0.297183855,1.134841529
7,1,0.244831666,0.240489006,0.119371712,0.053378593,-0.655737877,0.373645097,0.007746959,-0.281165779,-0.959627926,0.285008662,0.008072703,0.252356298,0.286356734,1.134841529
7,1,0.087912567,0.209963322,0.221559644,0.466760516,-0.841888011,0.469084293,-0.009268694,-0.287093252,-0.957857788,0.291190966,-0.00967618,0.260966199,0.274766289,1.134841529
7,1,0.087912567,0.209963322,0.221559644,0.466760516,-0.841888011,0.469084293,-0.009268694,-0.287093252,-0.957857788,0.291190966,-0.00967618,0.260966199,0.267190357,1.134841529
7,1,0.087912567,0.209963322,0.221559644,0.466760516,-0.841888011,0.469084293,-0.009268694,-0.287093252,-0.957857788,0.291190966,-0.00967618,0.260966199,0.259614425,1.134841529
7,1,-0.022321483,0.134727508,0.176193178,0.544600546,-0.764750779,0.488319993,-0.027910188,-0.296513081,-0.954620898,0.301039468,-0.029228607,0.271509863,0.252092829,1.134841529
7,1,-0.022321483,0.134727508,0.176193178,0.544600546,-0.764750779,0.488319993,-0.027910188,-0.296513081,-0.954620898,0.301039468,-0.029228607,0.271509863,0.244571233,1.134841529
7,1,-0.09570998,-0.1979312,0.06134969,0.170428127,-0.521390021,0.464444309,-0.043220863,-0.304399937,-0.951563299,0.309308412,-0.045389707,0.281607097,0.228120889,1.134841529
7,1,-0.09570998,-0.1979312,0.06134969,0.170428127,-0.521390021,0.464444309,-0.043220863,-0.304399937,-0.951563299,0.309308412,-0.045389707,0.281607097,0.211670545,1.134841529
7,1,-0.175434411,-0.422201693,0.106135368,-0.427528173,-0.095386267,0.55572629,-0.052043077,-0.300847799,-0.952251077,0.305581508,-0.054598365,0.29201337,0.19235117,1.134841529
7,1,-0.175434411,-0.422201693,0.106135368,-0.427528173,-0.095386267,0.55572629,-0.052043077,-0.300847799,-0.952251077,0.305581508,-0.054598365,0.29201337,0.173031796,1.134841529
7,1,-0.224217951,-0.17285344,0.180860162,-0.32470122,0.10912966,0.633005977,-0.055017319,-0.29175806,-0.95490855,0.296064354,-0.057551649,0.304001331,0.153824214,1.134841529
7,1,-0.224217951,-0.17285344,0.180860162,-0.32470122,0.10912966,0.633005977,-0.055017319,-0.29175806,-0.95490855,0.296064354,-0.057551649,0.304001331,0.134616632,1.134841529
7,1,-0.184592605,0.023103744,0.130042791,0.359165221,0.043661743,0.615411699,-0.056877147,-0.29131937,-0.954933524,0.295605734,-0.059491087,0.317208338,0.11796301,1.134841529
7,1,-0.184592605,0.023103744,0.130042791,0.359165221,0.043661743,0.615411699,-0.056877147,-0.29131937,-0.954933524,0.295605734,-0.059491087,0.317208338,0.101309389,1.134841529
7,1,-0.167395577,-0.085811079,0.026022375,0.395359397,0.037476953,0.543207228,-0.060066555,-0.299363017,-0.952246726,0.304024973,-0.062995309,0.329987119,0.08890655,1.134841529
7,1,-0.167395577,-0.085811079,0.026022375,0.395359397,0.037476953,0.543207228,-0.060066555,-0.299363017,-0.952246726,0.304024973,-0.062995309,0.329987119,0.076785253,1.134841529
7,1,-0.156533539,-0.183855712,0.106968641,0.069635078,0.288111895,0.408636183,-0.05977441,-0.302514642,-0.951268613,0.307329818,-0.062754017,0.340180483,0.066107779,1.134841529
7,1,-0.156533539,-0.183855712,0.106968641,0.069635078,0.288111895,0.408636183,-0.05977441,-0.302514642,-0.951268613,0.307329818,-0.062754017,0.340180483,0.055430305,1.134841529
7,1,-0.073552884,-0.163335115,0.122222543,0.205888599,0.080743246,0.379009306,-0.05745846,-0.304602593,-0.950744867,0.309521162,-0.060361785,0.348295552,0.046765099,1.134841529
7,1,-0.073552884,-0.163335115,0.122222543,0.205888599,0.080743246,0.379009306,-0.05745846,-0.304602593,-0.950744867,0.309521162,-0.060361785,0.348295552,0.038099894,1.134841529
7,1,-0.116030306,-0.127715766,0.028005958,0.237214595,-0.282829225,0.386932433,-0.062466353,-0.308895677,-0.94904238,0.314031715,-0.065725598,0.35680289,0.02923795,1.134841529
7,1,-0.116030306,-0.127715766,0.028005958,0.237214595,-0.282829225,0.386932433,-0.062466353,-0.308895677,-0.94904238,0.314031715,-0.065725598,0.35680289,0.020376007,1.134841529
7,1,-0.239497513,-0.13049075,-0.002827704,-0.197594419,-0.009124591,0.347159475,-0.068195239,-0.309263974,-0.948527932,0.314418972,-0.071772377,0.364505223,0.009604386,1.134841529
7,1,-0.239497513,-0.13049075,-0.002827704,-0.197594419,-0.009124591,0.347159475,-0.068195239,-0.309263974,-0.948527932,0.314418972,-0.071772377,0.364505223,-0.001167235,-0.620825067
7,1,-0.198735833,-0.116658241,0.055507123,-0.679810762,0.256345212,0.325100124,-0.069284089,-0.303199202,-0.95040518,0.308048109,-0.072770798,0.371522847,-0.008171595,-0.620825067
7,1,-0.198735833,-0.116658241,0.055507123,-0.679810762,0.256345212,0.325100124,-0.069284089,-0.303199202,-0.95040518,0.308048109,-0.072770798,0.371522847,-0.015175955,-0.620825067
7,1,-0.067649782,0.018135488,0.11000818,-1.0135324,0.168496177,0.308288842,-0.070304178,-0.294911295,-0.952934742,0.299362672,-0.073643068,0.378020389,-0.026420385,-0.620825067
7,1,-0.067649782,0.018135488,0.11000818,-1.0135324,0.168496177,0.308288842,-0.070304178,-0.294911295,-0.952934742,0.299362672,-0.073643068,0.378020389,-0.037664816,-0.620825067
7,1,-0.017877556,0.235871434,0.212728918,-1.309274912,0.034025133,0.219398022,-0.07077527,-0.27360332,-0.959235191,0.277137309,-0.073649566,0.382426002,-0.058245377,-0.620825067
7,1,-0.017877556,0.235871434,0.212728918,-1.309274912,0.034025133,0.219398022,-0.07077527,-0.27360332,-0.959235191,0.277137309,-0.073649566,0.382426002,-0.078825938,-0.620825067
7,1,-0.027504697,0.274669826,0.204305172,-1.175045848,0.013244994,-0.102374688,-0.070822187,-0.249505162,-0.965780199,0.252169228,-0.07320055,0.381486943,-0.087398585,-0.620825067
7,1,-0.027504697,0.274669826,0.204305172,-1.175045848,0.013244994,-0.102374688,-0.070822187,-0.249505162,-0.965780199,0.252169228,-0.07320055,0.381486943,-0.095971233,-0.620825067
7,1,-0.087647364,-0.02753076,0.187301338,-1.11812222,-0.051101469,0.051355597,-0.070570253,-0.227089897,-0.971313536,0.229088464,-0.072527012,0.378633538,-0.110211659,-0.620825067
7,1,-0.087647364,-0.02753076,0.187301338,-1.11812222,-0.051101469,0.051355597,-0.070570253,-0.227089897,-0.971313536,0.229088464,-0.072527012,0.378633538,-0.124452085,-0.620825067
7,1,-0.132039934,0.137580812,0.033234417,-0.706695676,-0.204586565,0.168065965,-0.073785059,-0.208852068,-0.975159764,0.210400996,-0.075520685,0.379700479,-0.1485293,-0.620825067
7,1,-0.158562899,0.15531224,-0.037879288,-0.437614352,-0.235013574,0.235604316,-0.079076618,-0.197515622,-0.977105141,0.19882297,-0.080753496,0.383041797,-0.174209856,-0.620825067
7,1,-0.158562899,0.15531224,-0.037879288,-0.437614352,-0.235013574,0.235604316,-0.079076618,-0.197515622,-0.977105141,0.19882297,-0.080753496,0.383041797,-0.195388841,-0.620825067
7,1,-0.158562899,0.15531224,-0.037879288,-0.437614352,-0.235013574,0.235604316,-0.079076618,-0.197515622,-0.977105141,0.19882297,-0.080753496,0.383041797,-0.216567826,-0.620825067
7,1,-0.16896376,0.064315245,0.027293444,-0.011298697,-0.53825289,0.089096904,-0.085033104,-0.191540658,-0.97779423,0.192731626,-0.086745974,0.386609434,-0.222619526,-0.620825067
7,1,-0.16896376,0.064315245,0.027293444,-0.011298697,-0.53825289,0.089096904,-0.085033104,-0.191540658,-0.97779423,0.192731626,-0.086745974,0.386609434,-0.228671227,-0.620825067
7,1,-0.233920693,0.075718194,-0.542810082,1.008514404,-0.366728663,-0.323012412,-0.095561303,-0.200471565,-0.9750278,0.201839241,-0.097696777,0.384381331,-0.23020485,-0.620825067
7,1,-0.233920693,0.075718194,-0.542810082,1.008514404,-0.366728663,-0.323012412,-0.095561303,-0.200471565,-0.9750278,0.201839241,-0.097696777,0.384381331,-0.228246059,-0.620825067
7,1,-0.29575637,-0.336719811,-0.349561572,0.669501007,0.874066412,0.517150879,-0.088123284,-0.219109431,-0.971712589,0.220901625,-0.090441233,0.385772101,-0.247189801,-0.753036841
7,1,-0.055075034,-0.092431039,0.182013094,0.156034529,1.037158847,0.137323394,-0.066460475,-0.225620359,-0.971945703,0.227579763,-0.06827252,0.398089182,-0.254714525,-0.753036841
7,1,0.112898007,0.221739888,-0.001073658,0.180812418,0.47181356,-0.262389749,-0.052716751,-0.228038937,-0.972223818,0.230063079,-0.054169807,0.393312453,-0.251922789,-0.753036841
7,1,0.112898007,0.221739888,-0.001073658,0.180812418,0.47181356,-0.262389749,-0.052716751,-0.228038937,-0.972223818,0.230063079,-0.054169807,0.393312453,-0.244119091,-0.753036841
7,1,0.112898007,0.221739888,-0.001073658,0.180812418,0.47181356,-0.262389749,-0.052716751,-0.228038937,-0.972223818,0.230063079,-0.054169807,0.393312453,-0.236315393,-0.753036841
7,1,0.058830418,0.105087698,-0.046721637,0.313704789,0.068366379,-0.079484336,-0.048286036,-0.232907638,-0.97129941,0.235066482,-0.049671934,0.390696099,-0.230348602,-0.753036841
7,1,0.058830418,0.105087698,-0.046721637,0.313704789,0.068366379,-0.079484336,-0.048286036,-0.232907638,-0.97129941,0.235066482,-0.049671934,0.390696099,-0.224419383,-0.753036841
7,1,0.058830418,0.105087698,-0.046721637,0.313704789,0.068366379,-0.079484336,-0.048286036,-0.232907638,-0.97129941,0.235066482,-0.049671934,0.390696099,-0.218490163,-0.753036841
7,1,-0.046270948,-0.087104619,-0.009363651,0.035159122,0.167465076,-0.046744928,-0.045235485,-0.238148734,-0.97017467,0.240459304,-0.046592381,0.388936455,-0.214937074,-0.753036841
7,1,-0.031668916,-0.093629301,0.02715528,0.118412338,0.339138865,-0.00787183,-0.040199526,-0.238597378,-0.970286191,0.240921265,-0.041406904,0.388430266,-0.212259032,-0.753036841
7,1,-0.031668916,-0.093629301,0.02715528,0.118412338,0.339138865,-0.00787183,-0.040199526,-0.238597378,-0.970286191,0.240921265,-0.041406904,0.388430266,-0.20958099,-0.753036841
7,1,-0.031668916,-0.093629301,0.02715528,0.118412338,0.339138865,-0.00787183,-0.040199526,-0.238597378,-0.970286191,0.240921265,-0.041406904,0.388430266,-0.206902948,-0.753036841
7,1,0.054190394,0.004999653,-0.0094648,0.066182338,0.173749432,0.036104895,-0.034948662,-0.240836561,-0.969936252,0.243227683,-0.036016336,0.388867825,-0.203394466,-0.753036841
7,1,0.054190394,0.004999653,-0.0094648,0.066182338,0.173749432,0.036104895,-0.034948662,-0.240836561,-0.969936252,0.243227683,-0.036016336,0.388867825,-0.199885984,-0.753036841
7,1,0.065769255,-0.01191023,0.002678216,-0.154512584,0.07494349,0.011907041,-0.032809895,-0.239856854,-0.970253706,0.242218391,-0.033802908,0.389415104,-0.194563102,-0.753036841
7,1,0.065769255,-0.01191023,0.002678216,-0.154512584,0.07494349,0.011907041,-0.032809895,-0.239856854,-0.970253706,0.242218391,-0.033802908,0.389415104,-0.18924022,-0.753036841
7,1,0.063856333,0.10302417,-0.005106747,0.067406803,0.080840223,-0.050316758,-0.03175148,-0.23815307,-0.970708489,0.240463767,-0.032697936,0.38910189,-0.179126327,-0.753036841
7,1,0.063856333,0.10302417,-0.005106747,0.067406803,0.080840223,-0.050316758,-0.03175148,-0.23815307,-0.970708489,0.240463767,-0.032697936,0.38910189,-0.169012435,-0.753036841
7,1,0.04484313,0.004280642,0.016043961,0.164297387,0.012413797,-0.019362889,-0.030575814,-0.241139859,-0.970008612,0.243540198,-0.031510743,0.388169193,-0.15642837,-0.753036841
7,1,0.007037587,-0.077709094,0.031481206,-0.002882549,0.039739743,-0.024214637,-0.029559217,-0.242508814,-0.969698787,0.244951029,-0.030473449,0.387807324,-0.14378103,-0.753036841
8,1,0.007037587,-0.077709094,0.031481206,-0.002882549,0.039739743,-0.024214637,-0.029559217,-0.242508814,-0.969698787,0.244951029,-0.030473449,0.387807324,-0.131085952,-0.753036841
8,1,-0.025280861,-0.030805349,0.032972455,-0.003665105,0.076740526,0.015142942,-0.026125694,-0.242980063,-0.969679415,0.245436806,-0.026936093,0.38710204,-0.119334139,-0.753036841
8,1,-0.013264509,0.007126674,0.010428548,0.112657629,-0.004797632,-0.002196687,-0.022852782,-0.240522161,-0.970374584,0.242903774,-0.023546123,0.386663725,-0.108275231,-0.753036841
8,1,-0.013264509,0.007126674,0.010428548,0.112657629,-0.004797632,-0.002196687,-0.022852782,-0.240522161,-0.970374584,0.242903774,-0.023546123,0.386663725,-0.097216323,-0.753036841
8,1,-0.013264509,0.007126674,0.010428548,0.112657629,-0.004797632,-0.002196687,-0.022852782,-0.240522161,-0.970374584,0.242903774,-0.023546123,0.386663725,-0.087601239,-0.753036841
8,1,-0.017034743,0.022638634,-0.0044958,0.159637183,0.024757344,0.022794418,-0.021340868,-0.241034731,-0.970281839,0.243431872,-0.021990959,0.386592578,-0.078630198,-0.753036841
8,1,-0.017034743,0.022638634,-0.0044958,0.159637183,0.024757344,0.022794418,-0.021340868,-0.241034731,-0.970281839,0.243431872,-0.021990959,0.386592578,-0.071324705,-0.753036841
8,1,-0.010696201,0.048194319,0.005492389,0.327843606,0.011904624,0.023878695,-0.020828219,-0.248417154,-0.968429208,0.251045847,-0.021503904,0.387036269,-0.0640476,-0.753036841
8,1,-0.010696201,0.048194319,0.005492389,0.327843606,0.011904624,0.023878695,-0.020828219,-0.248417154,-0.968429208,0.251045847,-0.021503904,0.387036269,-0.058812441,-0.753036841
8,1,-0.010696201,0.048194319,0.005492389,0.327843606,0.011904624,0.023878695,-0.020828219,-0.248417154,-0.968429208,0.251045847,-0.021503904,0.387036269,-0.053577282,-0.753036841
8,1,-0.017980164,0.042533547,0.005737722,0.426031858,-0.034003224,0.01914642,-0.022134945,-0.257175893,-0.966111064,0.260098663,-0.02290738,0.388129357,-0.04770107,-0.753036841
8,1,-0.017980164,0.042533547,0.005737722,0.426031858,-0.034003224,0.01914642,-0.022134945,-0.257175893,-0.966111064,0.260098663,-0.02290738,0.388129357,-0.041824858,-0.753036841
8,1,-0.022244578,0.012776196,0.004631579,0.411300868,-0.032480113,-0.024675524,-0.02333317,-0.264939845,-0.963982582,0.268141538,-0.024200244,0.388296478,-0.034576948,-0.753036841
8,1,-0.022244578,0.012776196,0.004631579,0.411300868,-0.032480113,-0.024675524,-0.02333317,-0.264939845,-0.963982582,0.268141538,-0.024200244,0.388296478,-0.027329037,-0.753036841
8,1,-0.016019614,-0.01564303,-0.001786172,0.21037975,0.060313601,-0.003465364,-0.023591939,-0.268914968,-0.962874949,0.272266324,-0.024496661,0.388277029,-0.022241652,-0.753036841
8,1,-0.001644854,0.007653922,-0.001615405,0.272162527,0.08480335,-0.002736509,-0.022204394,-0.27141425,-0.962206483,0.274862135,-0.023072442,0.388221161,-0.017325891,-0.753036841
8,1,-0.001644854,0.007653922,-0.001615405,0.272162527,0.08480335,-0.002736509,-0.022204394,-0.27141425,-0.962206483,0.274862135,-0.023072442,0.388221161,-0.015312442,-0.753036841
8,1,0.014800329,0.024124473,0.03650707,0.219135433,-0.004550563,0.01589033,-0.021834398,-0.274487585,-0.961342752,0.27805679,-0.022708493,0.388755058,-0.013146687,-0.753036841
8,1,0.014800329,0.024124473,0.03650707,0.219135433,-0.004550563,0.01589033,-0.021834398,-0.274487585,-0.961342752,0.27805679,-0.022708493,0.388755058,-0.017098642,-0.753036841
8,1,0.006538657,-0.043379277,0.018398583,0.056981985,0.003821399,0.02335741,-0.022605926,-0.27659443,-0.960720837,0.280248454,-0.023525831,0.389201369,-0.021170065,-0.753036841
8,1,0.006538657,-0.043379277,0.018398583,0.056981985,0.003821399,0.02335741,-0.022605926,-0.27659443,-0.960720837,0.280248454,-0.023525831,0.389201369,-0.022478334,-0.753036841
8,1,0.006538657,-0.043379277,0.018398583,0.056981985,0.003821399,0.02335741,-0.022605926,-0.27659443,-0.960720837,0.280248454,-0.023525831,0.389201369,-0.023786603,-0.753036841
8,1,-0.010515183,-0.077380896,0.014211655,-0.092562996,0.02678372,0.065487184,-0.023069166,-0.275780708,-0.960943699,0.279401797,-0.024002171,0.390311346,-0.02376983,-0.753036841
8,1,-0.010515183,-0.077380896,0.014211655,-0.092562996,0.02678372,0.065487184,-0.023069166,-0.275780708,-0.960943699,0.279401797,-0.024002171,0.390311346,-0.022149716,-0.753036841
8,1,-0.00996979,0.006538689,-0.005607247,-0.054047052,0.12090639,0.088494122,-0.022592222,-0.274586767,-0.961296916,0.278159928,-0.023497491,0.391913243,-0.021506938,-0.753036841
8,1,0.010611065,0.027925193,-0.002205074,-0.045679934,0.097992286,0.068524137,-0.020284915,-0.27305451,-0.961784661,0.27656678,-0.021087785,0.393431283,-0.020357934,-0.753036841
8,1,0.010611065,0.027925193,-0.002205074,-0.045679934,0.097992286,0.068524137,-0.020284915,-0.27305451,-0.961784661,0.27656678,-0.021087785,0.393431283,-0.022531449,-0.753036841
8,1,0.010611065,0.027925193,-0.002205074,-0.045679934,0.097992286,0.068524137,-0.020284915,-0.27305451,-0.961784661,0.27656678,-0.021087785,0.393431283,-0.024704963,-0.753036841
8,1,0.025735497,-0.02447021,0.010921896,-0.116360307,0.048170526,0.087598979,-0.019112971,-0.272478014,-0.961972177,0.275967553,-0.019865914,0.39491062,-0.032450143,-0.753036841
8,1,0.025735497,-0.02447021,0.010921896,-0.116360307,0.048170526,0.087598979,-0.019112971,-0.272478014,-0.961972177,0.275967553,-0.019865914,0.39491062,-0.040195323,-0.753036841
8,1,-0.027278781,-0.001813322,0.049377859,-0.199335381,-0.12074323,0.272900283,-0.021198161,-0.271392226,-0.962235391,0.274839251,-0.022026557,0.398391372,-0.029646586,-0.377845164
8,1,-0.027278781,-0.001813322,0.049377859,-0.199335381,-0.12074323,0.272900283,-0.021198161,-0.271392226,-0.962235391,0.274839251,-0.022026557,0.398391372,-0.026601683,-0.225599993
8,1,-0.032212671,0.07799232,0.036830842,-0.189033151,0.092658147,0.051462121,-0.022093128,-0.268068075,-0.963146627,0.271387144,-0.022934467,0.401903553,-0.030765799,-0.225599993
8,1,-0.05263745,-0.035938501,-0.080145001,-0.217693508,0.086684197,0.161267653,-0.020787617,-0.263756394,-0.964365304,0.266914447,-0.021552411,0.403682601,-0.037002538,-0.225599993
8,1,-0.05263745,-0.035938501,-0.080145001,-0.217693508,0.086684197,0.161267653,-0.020787617,-0.263756394,-0.964365304,0.266914447,-0.021552411,0.403682601,-0.043239277,-0.225599993
8,1,-0.05263745,-0.035938501,-0.080145001,-0.217693508,0.086684197,0.161267653,-0.020787617,-0.263756394,-0.964365304,0.266914447,-0.021552411,0.403682601,-0.047639109,-0.225599993
8,1,-0.092671752,-0.086925566,-0.080541849,-0.29277584,0.012432935,0.085940517,-0.0197853,-0.259217083,-0.965616405,0.262211503,-0.020486947,0.406414409,-0.050170073,-0.225599993
8,1,-0.092671752,-0.086925566,-0.080541849,-0.29277584,0.012432935,0.085940517,-0.0197853,-0.259217083,-0.965616405,0.262211503,-0.020486947,0.406414409,-0.052701038,-0.225599993
8,1,-0.179684103,-0.06040436,-0.081363916,-0.121532597,0.084634185,-0.062848426,-0.019046145,-0.255831152,-0.96653384,0.258707355,-0.019703065,0.406695708,-0.051950456,-0.225599993
8,1,-0.179684103,-0.06040436,-0.081363916,-0.121532597,0.084634185,-0.062848426,-0.019046145,-0.255831152,-0.96653384,0.258707355,-0.019703065,0.406695708,-0.049561503,-0.225599993
8,1,-0.222020432,-0.062953115,-0.052548409,0.129727289,0.060919307,-0.293094844,-0.017618645,-0.255388021,-0.966678083,0.258248999,-0.018223951,0.403370329,-0.042691013,-0.225599993
8,1,-0.222020432,-0.062953115,-0.052548409,0.129727289,0.060919307,-0.293094844,-0.017618645,-0.255388021,-0.966678083,0.258248999,-0.018223951,0.403370329,-0.035820523,-0.225599993
8,1,-0.229017824,-0.09279117,-0.042998493,0.321066409,-0.015360273,-0.535717309,-0.015870294,-0.260141551,-0.965440094,0.263168796,-0.016436923,0.395062382,-0.023914902,-0.225599993
8,1,-0.237905741,-0.161289394,-0.093117476,0.251302928,0.033788435,-0.711258113,-0.013619978,-0.266670704,-0.963691473,0.269936984,-0.01413219,0.382254755,-0.008871344,-0.225599993
8,1,-0.237905741,-0.161289394,-0.093117476,0.251302928,0.033788435,-0.711258113,-0.013619978,-0.266670704,-0.963691473,0.269936984,-0.01413219,0.382254755,0.005077841,0.673000253
8,1,-0.237905741,-0.161289394,-0.093117476,0.251302928,0.033788435,-0.711258113,-0.013619978,-0.266670704,-0.963691473,0.269936984,-0.01413219,0.382254755,0.019027027,0.673000253
8,1,-0.233948439,-0.185146242,-0.118611753,0.004476378,0.267810017,-0.775340736,-0.006758873,-0.269333661,-0.963023245,0.272701053,-0.007018275,0.366844046,0.031968234,0.674510644
8,1,-0.233948439,-0.185146242,-0.118611753,0.004476378,0.267810017,-0.775340736,-0.006758873,-0.269333661,-0.963023245,0.272701053,-0.007018275,0.366844046,0.044909441,0.674510644
8,1,-0.204391271,-0.154184133,-0.104069948,0.049596798,0.46771428,-0.884779871,0.004928329,-0.26942715,-0.963008165,0.272798146,0.005117596,0.349685488,0.059219732,0.726279744
8,1,-0.259715021,-0.052216113,-0.003305793,0.135650396,0.586561739,-0.969554901,0.01964826,-0.270732939,-0.962453961,0.274154328,0.020411918,0.330629839,0.074481468,0.777015666
8,1,-0.259715021,-0.052216113,-0.003305793,0.135650396,0.586561739,-0.969554901,0.01964826,-0.270732939,-0.962453961,0.274154328,0.020411918,0.330629839,0.089743204,0.777015666
8,1,-0.261430025,0.029721111,0.003170431,0.770350873,0.940553546,-1.272149563,0.040375516,-0.277535796,-0.959866524,0.281228192,0.042038895,0.307400347,0.11023109,0.991159815
8,1,-0.261430025,0.029721111,0.003170431,0.770350873,0.940553546,-1.272149563,0.040375516,-0.277535796,-0.959866524,0.281228192,0.042038895,0.307400347,0.130040066,0.991159815
8,1,-0.261430025,0.029721111,0.003170431,0.770350873,0.940553546,-1.272149563,0.040375516,-0.277535796,-0.959866524,0.281228192,0.042038895,0.307400347,0.149849042,0.991159815
8,1,-0.209080875,0.00946033,-0.102174342,2.322401762,1.004193544,-1.736046791,0.067966849,-0.304775357,-0.949996054,0.309702559,0.071422654,0.274414092,0.179855432,1.501030484
8,1,-0.236007258,0.059813589,-0.128775358,3.686507225,1.135063052,-2.141578674,0.100599639,-0.358179808,-0.928217053,0.366317619,0.107958054,0.227551271,0.219528345,1.952154477
8,1,-0.236007258,0.059813589,-0.128775358,3.686507225,1.135063052,-2.141578674,0.100599639,-0.358179808,-0.928217053,0.366317619,0.107958054,0.227551271,0.259201258,1.952154477
8,1,-0.236007258,0.059813589,-0.128775358,3.686507225,1.135063052,-2.141578674,0.100599639,-0.358179808,-0.928217053,0.366317619,0.107958054,0.227551271,0.298902558,1.952154477
8,1,-0.27162087,0.095214546,-0.069131196,4.867419243,1.364514709,-2.642006397,0.142011121,-0.4307504,-0.891227782,0.445324117,0.158014831,0.16390695,0.348722607,2.458091907
8,1,-0.27162087,0.095214546,-0.069131196,4.867419243,1.364514709,-2.642006397,0.142011121,-0.4307504,-0.891227782,0.445324117,0.158014831,0.16390695,0.398542656,2.458091907
8,1,-0.228712812,0.073278844,0.039780378,5.521859169,1.522900105,-3.249380112,0.194881976,-0.510910511,-0.837252378,0.536243623,0.228691675,0.075718318,0.459298243,3.018596381
8,1,-0.124924839,-0.230938494,0.169494867,5.674408436,1.41993773,-3.425508976,0.256315559,-0.586972058,-0.767962396,0.62731372,0.322135002,-0.039226473,0.524714651,3.251637481
8,1,-0.124924839,-0.230938494,0.169494867,5.674408436,1.41993773,-3.425508976,0.256315559,-0.586972058,-0.767962396,0.62731372,0.322135002,-0.039226473,0.589291499,3.251637481
8,1,-0.124924839,-0.230938494,0.169494867,5.674408436,1.41993773,-3.425508976,0.256315559,-0.586972058,-0.767962396,0.62731372,0.322135002,-0.039226473,0.653868347,3.251637481
8,1,-0.037875801,-0.343851864,0.205328822,4.948329926,0.995223403,-3.242338419,0.315597683,-0.646009386,-0.695032477,0.702344853,0.426238491,-0.16787327,0.717671029,3.251637481
8,1,-0.052335739,-0.266990542,0.172411561,4.108808517,0.417040944,-3.076007605,0.367013842,-0.684387743,-0.630011439,0.753763614,0.527490631,-0.29852992,0.781409405,3.251637481
8,1,-0.052335739,-0.266990542,0.172411561,4.108808517,0.417040944,-3.076007605,0.367013842,-0.684387743,-0.630011439,0.753763614,0.527490631,-0.29852992,0.845147781,3.251637481
8,1,-0.160613537,-0.139378011,0.148703694,4.039355755,0.138454035,-3.064851284,0.412592828,-0.708362281,-0.572704315,0.787175311,0.624305563,-0.430559214,0.911999758,3.323787155
8,1,-0.226463288,0.142819345,0.189726055,4.277533531,0.405236036,-2.879747868,0.45819357,-0.727513015,-0.510669649,0.814690124,0.731288504,-0.572894788,0.975090465,3.323787155
8,1,-0.226463288,0.142819345,0.189726055,4.277533531,0.405236036,-2.879747868,0.45819357,-0.727513015,-0.510669649,0.814690124,0.731288504,-0.572894788,1.038300641,3.323787155
8,1,-0.226463288,0.142819345,0.189726055,4.277533531,0.405236036,-2.879747868,0.45819357,-0.727513015,-0.510669649,0.814690124,0.731288504,-0.572894788,1.101510816,3.323787155
8,1,-0.226463288,0.142819345,0.189726055,4.277533531,0.405236036,-2.879747868,0.45819357,-0.727513015,-0.510669649,0.814690124,0.731288504,-0.572894788,1.164720991,3.323787155
8,1,-0.055018425,0.289794803,0.33330518,5.027277946,0.577410698,-2.447874308,0.502599061,-0.744956434,-0.438673377,0.840469576,0.853208148,-0.723372616,1.229492136,3.323787155
8,1,-0.055018425,0.289794803,0.33330518,5.027277946,0.577410698,-2.447874308,0.502599061,-0.744956434,-0.438673377,0.840469576,0.853208148,-0.723372616,1.29426328,3.323787155
8,1,0.23076731,0.094079673,0.217625618,6.361084461,-0.752236724,-1.980627179,0.536026716,-0.767746866,-0.351055801,0.87531734,0.990968604,-0.905211159,1.390255213,4.682549263
8,1,0.185509384,0.067739189,-0.068983257,6.710680962,-1.72075057,-2.181577921,0.559479713,-0.78602314,-0.262964517,0.904349399,1.13142217,-1.120548457,1.505704279,5.680717212
8,1,0.185509384,0.067739189,-0.068983257,6.710680962,-1.72075057,-2.181577921,0.559479713,-0.78602314,-0.262964517,0.904349399,1.13142217,-1.120548457,1.621153345,5.680717212
8,1,0.048225582,-0.052676439,-0.154494822,5.747638226,-1.584368944,-2.337489128,0.588059723,-0.787784815,-0.183251932,0.907204298,1.268712198,-1.337451852,1.724116981,5.680717212
8,1,0.048225582,-0.052676439,-0.154494822,5.747638226,-1.584368944,-2.337489128,0.588059723,-0.787784815,-0.183251932,0.907204298,1.268712198,-1.337451852,1.82714928,5.680717212
8,1,0.150593519,-0.172835171,0.036120057,5.061100483,-1.710033774,-2.420657635,0.620777547,-0.774987042,-0.118450634,0.886694583,1.382252611,-1.522694395,1.924128664,5.680717212
8,1,0.150593519,-0.172835171,0.036120057,5.061100483,-1.710033774,-2.420657635,0.620777547,-0.774987042,-0.118450634,0.886694583,1.382252611,-1.522694395,2.023716664,5.680717212
8,1,0.228149354,-0.049097717,0.019614577,4.343544006,-2.522741556,-2.325218678,0.653069198,-0.753705084,-0.073686525,0.853681599,1.458440402,-1.677783901,2.126416168,5.680717212
8,1,0.228149354,-0.049097717,0.019614577,4.343544006,-2.522741556,-2.325218678,0.653069198,-0.753705084,-0.073686525,0.853681599,1.458440402,-1.677783901,2.226008231,5.680717212
8,1,0.228149354,-0.049097717,0.019614577,4.343544006,-2.522741556,-2.325218678,0.653069198,-0.753705084,-0.073686525,0.853681599,1.458440402,-1.677783901,2.327672918,5.680717212
8,1,0.08221364,-0.05151701,-0.210160792,3.817500114,-2.815870285,-2.131026268,0.683205664,-0.728565693,-0.04921839,0.816225701,1.498880192,-1.805555057,2.426441497,5.680717212
8,1,-0.064715683,-0.048106551,-0.439714253,2.809021473,-2.548373222,-1.720875859,0.708506882,-0.704647958,-0.038598154,0.781926864,1.516371959,-1.905189494,2.506965473,5.680717212
8,1,-0.064715683,-0.048106551,-0.439714253,2.809021473,-2.548373222,-1.720875859,0.708506882,-0.704647958,-0.038598154,0.781926864,1.516371959,-1.905189494,2.585620581,5.680717212
8,1,0.00962162,-0.176916182,-0.329937458,1.780017257,-2.365705967,-1.549951315,0.729231596,-0.683000982,-0.041609172,0.751863351,1.5137992,-1.971084489,2.646795226,5.680717212
8,1,0.00962162,-0.176916182,-0.329937458,1.780017257,-2.365705967,-1.549951315,0.729231596,-0.683000982,-0.041609172,0.751863351,1.5137992,-1.971084489,2.705533401,5.680717212
8,1,0.013595641,-0.155840755,-0.384932399,0.817352533,-2.261737585,-1.442870617,0.746787369,-0.662435234,-0.059062943,0.724064913,1.491871243,-2.008186794,2.748582513,5.680717212
