gravityX,gravityY,gravityZ,accelX,accelY,accelZ,rotRateX,rotRatY,rotRateZ,attPitch,attRoll,attYaw
-0.093127057,-0.178325698,-0.979554653,0.002474576,0.063076049,0.008225918,0.249676794,0.04253142,-0.065674193,0.179284615,-0.094785926,0.007629816
-0.093127057,-0.178325698,-0.979554653,0.002474576,0.063076049,0.008225918,0.249676794,0.04253142,-0.065674193,0.179284615,-0.094785926,0.007629816
-0.093127057,-0.178325698,-0.979554653,0.002474576,0.063076049,0.008225918,0.249676794,0.04253142,-0.065674193,0.179284615,-0.094785926,0.007629816
-0.092631884,-0.183242455,-0.978693783,0.022944987,0.008132562,0.011713803,0.222400054,-0.009344584,-0.035768118,0.18428374,-0.094367362,0.007058865
-0.092631884,-0.183242455,-0.978693783,0.022944987,0.008132562,0.011713803,0.222400054,-0.009344584,-0.035768118,0.18428374,-0.094367362,0.007058865
-0.092631884,-0.183242455,-0.978693783,0.022944987,0.008132562,0.011713803,0.222400054,-0.009344584,-0.035768118,0.18428374,-0.094367362,0.007058865
-0.093207866,-0.186232641,-0.978074491,0.028968349,-0.028824747,0.006196439,0.068617873,-0.047840055,-0.029626869,0.187326304,-0.095010388,0.006677689
-0.093207866,-0.186232641,-0.978074491,0.028968349,-0.028824747,0.006196439,0.068617873,-0.047840055,-0.029626869,0.187326304,-0.095010388,0.006677689
-0.093207866,-0.186232641,-0.978074491,0.028968349,-0.028824747,0.006196439,0.068617873,-0.047840055,-0.029626869,0.187326304,-0.095010388,0.006677689
-0.093207866,-0.186232641,-0.978074491,0.028968349,-0.028824747,0.006196439,0.068617873,-0.047840055,-0.029626869,0.187326304,-0.095010388,0.006677689
-0.093207866,-0.186232641,-0.978074491,0.028968349,-0.028824747,0.006196439,0.068617873,-0.047840055,-0.029626869,0.187326304,-0.095010388,0.006677689
-0.093207866,-0.186232641,-0.978074491,0.028968349,-0.028824747,0.006196439,0.068617873,-0.047840055,-0.029626869,0.187326304,-0.095010388,0.006677689
-0.093207866,-0.186232641,-0.978074491,0.028968349,-0.028824747,0.006196439,0.068617873,-0.047840055,-0.029626869,0.187326304,-0.095010388,0.006677689
-0.093207866,-0.186232641,-0.978074491,0.028968349,-0.028824747,0.006196439,0.068617873,-0.047840055,-0.029626869,0.187326304,-0.095010388,0.006677689
-0.093207866,-0.186232641,-0.978074491,0.028968349,-0.028824747,0.006196439,0.068617873,-0.047840055,-0.029626869,0.187326304,-0.095010388,0.006677689
-0.093207866,-0.186232641,-0.978074491,0.028968349,-0.028824747,0.006196439,0.068617873,-0.047840055,-0.029626869,0.187326304,-0.095010388,0.006677689
-0.093207866,-0.186232641,-0.978074491,0.028968349,-0.028824747,0.006196439,0.068617873,-0.047840055,-0.029626869,0.187326304,-0.095010388,0.006677689
-0.093207866,-0.186232641,-0.978074491,0.028968349,-0.028824747,0.006196439,0.068617873,-0.047840055,-0.029626869,0.187326304,-0.095010388,0.006677689
-0.093628578,-0.186026886,-0.978073478,0.009369515,-0.053047881,0.017441154,-0.069556706,0.001975448,-0.00965609,0.187116881,-0.095436745,0.006362222
-0.093628578,-0.186026886,-0.978073478,0.009369515,-0.053047881,0.017441154,-0.069556706,0.001975448,-0.00965609,0.187116881,-0.095436745,0.006362222
-0.093628578,-0.186026886,-0.978073478,0.009369515,-0.053047881,0.017441154,-0.069556706,0.001975448,-0.00965609,0.187116881,-0.095436745,0.006362222
-0.093628578,-0.186026886,-0.978073478,0.009369515,-0.053047881,0.017441154,-0.069556706,0.001975448,-0.00965609,0.187116881,-0.095436745,0.006362222
-0.093628578,-0.186026886,-0.978073478,0.009369515,-0.053047881,0.017441154,-0.069556706,0.001975448,-0.00965609,0.187116881,-0.095436745,0.006362222
-0.093628578,-0.186026886,-0.978073478,0.009369515,-0.053047881,0.017441154,-0.069556706,0.001975448,-0.00965609,0.187116881,-0.095436745,0.006362222
-0.093628578,-0.186026886,-0.978073478,0.009369515,-0.053047881,0.017441154,-0.069556706,0.001975448,-0.00965609,0.187116881,-0.095436745,0.006362222
-0.093628578,-0.186026886,-0.978073478,0.009369515,-0.053047881,0.017441154,-0.069556706,0.001975448,-0.00965609,0.187116881,-0.095436745,0.006362222
-0.093628578,-0.186026886,-0.978073478,0.009369515,-0.053047881,0.017441154,-0.069556706,0.001975448,-0.00965609,0.187116881,-0.095436745,0.006362222
-0.093628578,-0.186026886,-0.978073478,0.009369515,-0.053047881,0.017441154,-0.069556706,0.001975448,-0.00965609,0.187116881,-0.095436745,0.006362222
-0.093628578,-0.186026886,-0.978073478,0.009369515,-0.053047881,0.017441154,-0.069556706,0.001975448,-0.00965609,0.187116881,-0.095436745,0.006362222
-0.093628578,-0.186026886,-0.978073478,0.009369515,-0.053047881,0.017441154,-0.069556706,0.001975448,-0.00965609,0.187116881,-0.095436745,0.006362222
-0.092975289,-0.18454206,-0.978416979,-0.007809021,-0.019986749,0.015633166,-0.075759649,0.044173297,-0.006387752,0.185605902,-0.094741754,0.005947847
-0.092975289,-0.18454206,-0.978416979,-0.007809021,-0.019986749,0.015633166,-0.075759649,0.044173297,-0.006387752,0.185605902,-0.094741754,0.005947847
-0.092975289,-0.18454206,-0.978416979,-0.007809021,-0.019986749,0.015633166,-0.075759649,0.044173297,-0.006387752,0.185605902,-0.094741754,0.005947847
-0.092975289,-0.18454206,-0.978416979,-0.007809021,-0.019986749,0.015633166,-0.075759649,0.044173297,-0.006387752,0.185605902,-0.094741754,0.005947847
-0.092975289,-0.18454206,-0.978416979,-0.007809021,-0.019986749,0.015633166,-0.075759649,0.044173297,-0.006387752,0.185605902,-0.094741754,0.005947847
-0.092975289,-0.18454206,-0.978416979,-0.007809021,-0.019986749,0.015633166,-0.075759649,0.044173297,-0.006387752,0.185605902,-0.094741754,0.005947847
-0.092137173,-0.183160812,-0.978755772,0.007069409,0.003076568,0.012981236,-0.071719781,0.036661692,0.001186491,0.184200699,-0.093860437,0.005770685
-0.092137173,-0.183160812,-0.978755772,0.007069409,0.003076568,0.012981236,-0.071719781,0.036661692,0.001186491,0.184200699,-0.093860437,0.005770685
-0.092137173,-0.183160812,-0.978755772,0.007069409,0.003076568,0.012981236,-0.071719781,0.036661692,0.001186491,0.184200699,-0.093860437,0.005770685
-0.092137173,-0.183160812,-0.978755772,0.007069409,0.003076568,0.012981236,-0.071719781,0.036661692,0.001186491,0.184200699,-0.093860437,0.005770685
-0.092137173,-0.183160812,-0.978755772,0.007069409,0.003076568,0.012981236,-0.071719781,0.036661692,0.001186491,0.184200699,-0.093860437,0.005770685
-0.092137173,-0.183160812,-0.978755772,0.007069409,0.003076568,0.012981236,-0.071719781,0.036661692,0.001186491,0.184200699,-0.093860437,0.005770685
-0.091460995,-0.181190804,-0.97918576,0.009017751,-0.016166389,0.013640106,-0.128072038,0.047495916,0.012586312,0.182197167,-0.093134929,0.005728719
-0.091460995,-0.181190804,-0.97918576,0.009017751,-0.016166389,0.013640106,-0.128072038,0.047495916,0.012586312,0.182197167,-0.093134929,0.005728719
-0.091460995,-0.181190804,-0.97918576,0.009017751,-0.016166389,0.013640106,-0.128072038,0.047495916,0.012586312,0.182197167,-0.093134929,0.005728719
-0.091460995,-0.181190804,-0.97918576,0.009017751,-0.016166389,0.013640106,-0.128072038,0.047495916,0.012586312,0.182197167,-0.093134929,0.005728719
-0.091460995,-0.181190804,-0.97918576,0.009017751,-0.016166389,0.013640106,-0.128072038,0.047495916,0.012586312,0.182197167,-0.093134929,0.005728719
-0.091460995,-0.181190804,-0.97918576,0.009017751,-0.016166389,0.013640106,-0.128072038,0.047495916,0.012586312,0.182197167,-0.093134929,0.005728719
-0.091460995,-0.181190804,-0.97918576,0.009017751,-0.016166389,0.013640106,-0.128072038,0.047495916,0.012586312,0.182197167,-0.093134929,0.005728719
-0.091460995,-0.181190804,-0.97918576,0.009017751,-0.016166389,0.013640106,-0.128072038,0.047495916,0.012586312,0.182197167,-0.093134929,0.005728719
-0.090183385,-0.177945599,-0.979899108,0.00011076,-0.028002247,0.020533264,-0.194565192,0.076568693,0.015141029,0.178898341,-0.091774803,0.00571381
-0.090183385,-0.177945599,-0.979899108,0.00011076,-0.028002247,0.020533264,-0.194565192,0.076568693,0.015141029,0.178898341,-0.091774803,0.00571381
-0.090183385,-0.177945599,-0.979899108,0.00011076,-0.028002247,0.020533264,-0.194565192,0.076568693,0.015141029,0.178898341,-0.091774803,0.00571381
-0.090183385,-0.177945599,-0.979899108,0.00011076,-0.028002247,0.020533264,-0.194565192,0.076568693,0.015141029,0.178898341,-0.091774803,0.00571381
-0.090183385,-0.177945599,-0.979899108,0.00011076,-0.028002247,0.020533264,-0.194565192,0.076568693,0.015141029,0.178898341,-0.091774803,0.00571381
-0.090183385,-0.177945599,-0.979899108,0.00011076,-0.028002247,0.020533264,-0.194565192,0.076568693,0.015141029,0.178898341,-0.091774803,0.00571381
-0.090183385,-0.177945599,-0.979899108,0.00011076,-0.028002247,0.020533264,-0.194565192,0.076568693,0.015141029,0.178898341,-0.091774803,0.00571381
-0.090183385,-0.177945599,-0.979899108,0.00011076,-0.028002247,0.020533264,-0.194565192,0.076568693,0.015141029,0.178898341,-0.091774803,0.00571381
-0.090183385,-0.177945599,-0.979899108,0.00011076,-0.028002247,0.020533264,-0.194565192,0.076568693,0.015141029,0.178898341,-0.091774803,0.00571381
-0.094840541,-0.20995903,-0.973099411,0.019080676,0.028913543,0.012482345,-0.168127835,0.059401359,0.029902719,0.211533057,-0.097155489,0.007177761
-0.094840541,-0.20995903,-0.973099411,0.019080676,0.028913543,0.012482345,-0.168127835,0.059401359,0.029902719,0.211533057,-0.097155489,0.007177761
-0.094840541,-0.20995903,-0.973099411,0.019080676,0.028913543,0.012482345,-0.168127835,0.059401359,0.029902719,0.211533057,-0.097155489,0.007177761
-0.094840541,-0.20995903,-0.973099411,0.019080676,0.028913543,0.012482345,-0.168127835,0.059401359,0.029902719,0.211533057,-0.097155489,0.007177761
-0.094840541,-0.20995903,-0.973099411,0.019080676,0.028913543,0.012482345,-0.168127835,0.059401359,0.029902719,0.211533057,-0.097155489,0.007177761
-0.094840541,-0.20995903,-0.973099411,0.019080676,0.028913543,0.012482345,-0.168127835,0.059401359,0.029902719,0.211533057,-0.097155489,0.007177761
-0.094840541,-0.20995903,-0.973099411,0.019080676,0.028913543,0.012482345,-0.168127835,0.059401359,0.029902719,0.211533057,-0.097155489,0.007177761
-0.094840541,-0.20995903,-0.973099411,0.019080676,0.028913543,0.012482345,-0.168127835,0.059401359,0.029902719,0.211533057,-0.097155489,0.007177761
-0.094840541,-0.20995903,-0.973099411,0.019080676,0.028913543,0.012482345,-0.168127835,0.059401359,0.029902719,0.211533057,-0.097155489,0.007177761
-0.093209825,-0.197528452,-0.975855768,0.017236322,0.075015664,0.004771173,0.004758746,0.019725636,0.012900937,0.198836051,-0.095227092,0.007291267
-0.093209825,-0.197528452,-0.975855768,0.017236322,0.075015664,0.004771173,0.004758746,0.019725636,0.012900937,0.198836051,-0.095227092,0.007291267
-0.093209825,-0.197528452,-0.975855768,0.017236322,0.075015664,0.004771173,0.004758746,0.019725636,0.012900937,0.198836051,-0.095227092,0.007291267
-0.093209825,-0.197528452,-0.975855768,0.017236322,0.075015664,0.004771173,0.004758746,0.019725636,0.012900937,0.198836051,-0.095227092,0.007291267
-0.093209825,-0.197528452,-0.975855768,0.017236322,0.075015664,0.004771173,0.004758746,0.019725636,0.012900937,0.198836051,-0.095227092,0.007291267
-0.093209825,-0.197528452,-0.975855768,0.017236322,0.075015664,0.004771173,0.004758746,0.019725636,0.012900937,0.198836051,-0.095227092,0.007291267
-0.093209825,-0.197528452,-0.975855768,0.017236322,0.075015664,0.004771173,0.004758746,0.019725636,0.012900937,0.198836051,-0.095227092,0.007291267
-0.093209825,-0.197528452,-0.975855768,0.017236322,0.075015664,0.004771173,0.004758746,0.019725636,0.012900937,0.198836051,-0.095227092,0.007291267
-0.093209825,-0.197528452,-0.975855768,0.017236322,0.075015664,0.004771173,0.004758746,0.019725636,0.012900937,0.198836051,-0.095227092,0.007291267
-0.093209825,-0.197528452,-0.975855768,0.017236322,0.075015664,0.004771173,0.004758746,0.019725636,0.012900937,0.198836051,-0.095227092,0.007291267
-0.093209825,-0.197528452,-0.975855768,0.017236322,0.075015664,0.004771173,0.004758746,0.019725636,0.012900937,0.198836051,-0.095227092,0.007291267
-0.093209825,-0.197528452,-0.975855768,0.017236322,0.075015664,0.004771173,0.004758746,0.019725636,0.012900937,0.198836051,-0.095227092,0.007291267
-0.08943966,-0.198091701,-0.976094365,0.010109253,0.087099358,0.002690434,0.157984897,0.013545163,-0.010351228,0.199410664,-0.091374976,0.006772382
-0.08943966,-0.198091701,-0.976094365,0.010109253,0.087099358,0.002690434,0.157984897,0.013545163,-0.010351228,0.199410664,-0.091374976,0.006772382
-0.08943966,-0.198091701,-0.976094365,0.010109253,0.087099358,0.002690434,0.157984897,0.013545163,-0.010351228,0.199410664,-0.091374976,0.006772382
-0.08943966,-0.198091701,-0.976094365,0.010109253,0.087099358,0.002690434,0.157984897,0.013545163,-0.010351228,0.199410664,-0.091374976,0.006772382
-0.08943966,-0.198091701,-0.976094365,0.010109253,0.087099358,0.002690434,0.157984897,0.013545163,-0.010351228,0.199410664,-0.091374976,0.006772382
-0.08943966,-0.198091701,-0.976094365,0.010109253,0.087099358,0.002690434,0.157984897,0.013545163,-0.010351228,0.199410664,-0.091374976,0.006772382
-0.08943966,-0.198091701,-0.976094365,0.010109253,0.087099358,0.002690434,0.157984897,0.013545163,-0.010351228,0.199410664,-0.091374976,0.006772382
-0.08943966,-0.198091701,-0.976094365,0.010109253,0.087099358,0.002690434,0.157984897,0.013545163,-0.010351228,0.199410664,-0.091374976,0.006772382
-0.08943966,-0.198091701,-0.976094365,0.010109253,0.087099358,0.002690434,0.157984897,0.013545163,-0.010351228,0.199410664,-0.091374976,0.006772382
-0.088496573,-0.204512447,-0.974855363,-0.006977662,0.044188395,0.012147844,0.259363621,0.109158978,-0.035236444,0.205965606,-0.090531044,0.006724477
-0.088496573,-0.204512447,-0.974855363,-0.006977662,0.044188395,0.012147844,0.259363621,0.109158978,-0.035236444,0.205965606,-0.090531044,0.006724477
-0.088496573,-0.204512447,-0.974855363,-0.006977662,0.044188395,0.012147844,0.259363621,0.109158978,-0.035236444,0.205965606,-0.090531044,0.006724477
0.740187526,-0.624649346,-0.248868972,-0.211410224,0.047684669,0.044888735,2.173748255,-1.724082351,-2.808433294,0.674682396,1.24644623,-1.781176266
0.740187526,-0.624649346,-0.248868972,-0.211410224,0.047684669,0.044888735,2.173748255,-1.724082351,-2.808433294,0.674682396,1.24644623,-1.781176266
0.764334023,-0.594094515,-0.250689119,-0.19296962,0.038187027,0.016648889,2.022860289,-1.918119192,-2.638919353,0.636139489,1.253868125,-1.852593906
0.764334023,-0.594094515,-0.250689119,-0.19296962,0.038187027,0.016648889,2.022860289,-1.918119192,-2.638919353,0.636139489,1.253868125,-1.852593906
0.764334023,-0.594094515,-0.250689119,-0.19296962,0.038187027,0.016648889,2.022860289,-1.918119192,-2.638919353,0.636139489,1.253868125,-1.852593906
0.764334023,-0.594094515,-0.250689119,-0.19296962,0.038187027,0.016648889,2.022860289,-1.918119192,-2.638919353,0.636139489,1.253868125,-1.852593906
0.783320785,-0.565272391,-0.258603215,-0.188137412,0.195201695,0.029232204,2.293845415,-2.169434071,-2.492580891,0.600763395,1.251925173,-1.920377473
0.783320785,-0.565272391,-0.258603215,-0.188137412,0.195201695,0.029232204,2.293845415,-2.169434071,-2.492580891,0.600763395,1.251925173,-1.920377473
0.783320785,-0.565272391,-0.258603215,-0.188137412,0.195201695,0.029232204,2.293845415,-2.169434071,-2.492580891,0.600763395,1.251925173,-1.920377473
0.783320785,-0.565272391,-0.258603215,-0.188137412,0.195201695,0.029232204,2.293845415,-2.169434071,-2.492580891,0.600763395,1.251925173,-1.920377473
0.783320785,-0.565272391,-0.258603215,-0.188137412,0.195201695,0.029232204,2.293845415,-2.169434071,-2.492580891,0.600763395,1.251925173,-1.920377473
0.783320785,-0.565272391,-0.258603215,-0.188137412,0.195201695,0.029232204,2.293845415,-2.169434071,-2.492580891,0.600763395,1.251925173,-1.920377473
0.783320785,-0.565272391,-0.258603215,-0.188137412,0.195201695,0.029232204,2.293845415,-2.169434071,-2.492580891,0.600763395,1.251925173,-1.920377473
0.783320785,-0.565272391,-0.258603215,-0.188137412,0.195201695,0.029232204,2.293845415,-2.169434071,-2.492580891,0.600763395,1.251925173,-1.920377473
0.797723114,-0.540875793,-0.266629159,-0.201151431,0.281202495,0.028545201,2.39043355,-2.161956787,-2.115744591,0.571477971,1.248232045,-1.993196798
0.797723114,-0.540875793,-0.266629159,-0.201151431,0.281202495,0.028545201,2.39043355,-2.161956787,-2.115744591,0.571477971,1.248232045,-1.993196798
0.797723114,-0.540875793,-0.266629159,-0.201151431,0.281202495,0.028545201,2.39043355,-2.161956787,-2.115744591,0.571477971,1.248232045,-1.993196798
0.797723114,-0.540875793,-0.266629159,-0.201151431,0.281202495,0.028545201,2.39043355,-2.161956787,-2.115744591,0.571477971,1.248232045,-1.993196798
0.797723114,-0.540875793,-0.266629159,-0.201151431,0.281202495,0.028545201,2.39043355,-2.161956787,-2.115744591,0.571477971,1.248232045,-1.993196798
0.806433797,-0.522643089,-0.27660206,-0.196556449,0.195236087,-0.049540341,1.913095593,-1.955741167,-1.686571717,0.549948241,1.240376391,-2.055582964
0.806433797,-0.522643089,-0.27660206,-0.196556449,0.195236087,-0.049540341,1.913095593,-1.955741167,-1.686571717,0.549948241,1.240376391,-2.055582964
0.806433797,-0.522643089,-0.27660206,-0.196556449,0.195236087,-0.049540341,1.913095593,-1.955741167,-1.686571717,0.549948241,1.240376391,-2.055582964
0.806433797,-0.522643089,-0.27660206,-0.196556449,0.195236087,-0.049540341,1.913095593,-1.955741167,-1.686571717,0.549948241,1.240376391,-2.055582964
0.806433797,-0.522643089,-0.27660206,-0.196556449,0.195236087,-0.049540341,1.913095593,-1.955741167,-1.686571717,0.549948241,1.240376391,-2.055582964
0.812293828,-0.49190715,-0.313378572,-0.066185832,0.108759582,-0.172431648,1.104180098,-2.21370554,-1.200340152,0.514278908,1.202595665,-2.141299579
0.812293828,-0.49190715,-0.313378572,-0.066185832,0.108759582,-0.172431648,1.104180098,-2.21370554,-1.200340152,0.514278908,1.202595665,-2.141299579
0.812293828,-0.49190715,-0.313378572,-0.066185832,0.108759582,-0.172431648,1.104180098,-2.21370554,-1.200340152,0.514278908,1.202595665,-2.141299579
0.812293828,-0.49190715,-0.313378572,-0.066185832,0.108759582,-0.172431648,1.104180098,-2.21370554,-1.200340152,0.514278908,1.202595665,-2.141299579
0.812293828,-0.49190715,-0.313378572,-0.066185832,0.108759582,-0.172431648,1.104180098,-2.21370554,-1.200340152,0.514278908,1.202595665,-2.141299579
0.812293828,-0.49190715,-0.313378572,-0.066185832,0.108759582,-0.172431648,1.104180098,-2.21370554,-1.200340152,0.514278908,1.202595665,-2.141299579
0.808658421,-0.481999189,-0.337265939,-0.116856456,0.306188047,-0.271942079,1.283896923,-1.984706879,-0.949624777,0.502935017,1.175662888,-2.17454912
0.808658421,-0.481999189,-0.337265939,-0.116856456,0.306188047,-0.271942079,1.283896923,-1.984706879,-0.949624777,0.502935017,1.175662888,-2.17454912
0.808658421,-0.481999189,-0.337265939,-0.116856456,0.306188047,-0.271942079,1.283896923,-1.984706879,-0.949624777,0.502935017,1.175662888,-2.17454912
0.808658421,-0.481999189,-0.337265939,-0.116856456,0.306188047,-0.271942079,1.283896923,-1.984706879,-0.949624777,0.502935017,1.175662888,-2.17454912
0.808658421,-0.481999189,-0.337265939,-0.116856456,0.306188047,-0.271942079,1.283896923,-1.984706879,-0.949624777,0.502935017,1.175662888,-2.17454912
0.805316031,-0.477530569,-0.351326674,-0.180271327,0.204444677,-0.191246152,1.338036776,-1.422877431,-0.795791566,0.497841968,1.159427646,-2.211938008
0.805316031,-0.477530569,-0.351326674,-0.180271327,0.204444677,-0.191246152,1.338036776,-1.422877431,-0.795791566,0.497841968,1.159427646,-2.211938008
0.805316031,-0.477530569,-0.351326674,-0.180271327,0.204444677,-0.191246152,1.338036776,-1.422877431,-0.795791566,0.497841968,1.159427646,-2.211938008
0.805316031,-0.477530569,-0.351326674,-0.180271327,0.204444677,-0.191246152,1.338036776,-1.422877431,-0.795791566,0.497841968,1.159427646,-2.211938008
0.829425752,-0.463648498,-0.311581254,-0.071309865,-0.06720373,-0.138508797,0.375006378,0.210327953,0.041268077,0.482108635,1.21144801,-2.400720422
0.829832256,-0.467343003,-0.304908335,-0.076400816,-0.041612864,-0.093500197,0.452483654,0.293172807,0.096289523,0.486282977,1.218675571,-2.40845869
0.829832256,-0.467343003,-0.304908335,-0.076400816,-0.041612864,-0.093500197,0.452483654,0.293172807,0.096289523,0.486282977,1.218675571,-2.40845869
0.829832256,-0.467343003,-0.304908335,-0.076400816,-0.041612864,-0.093500197,0.452483654,0.293172807,0.096289523,0.486282977,1.218675571,-2.40845869
0.829832256,-0.467343003,-0.304908335,-0.076400816,-0.041612864,-0.093500197,0.452483654,0.293172807,0.096289523,0.486282977,1.218675571,-2.40845869
0.829832256,-0.467343003,-0.304908335,-0.076400816,-0.041612864,-0.093500197,0.452483654,0.293172807,0.096289523,0.486282977,1.218675571,-2.40845869
0.829832256,-0.467343003,-0.304908335,-0.076400816,-0.041612864,-0.093500197,0.452483654,0.293172807,0.096289523,0.486282977,1.218675571,-2.40845869
0.827358842,-0.476701051,-0.297041267,-0.056608975,0.002993137,0.044323504,0.432354927,0.312846959,0.149135381,0.496898075,1.226105492,-2.416101272
0.827358842,-0.476701051,-0.297041267,-0.056608975,0.002993137,0.044323504,0.432354927,0.312846959,0.149135381,0.496898075,1.226105492,-2.416101272
0.823763609,-0.485190332,-0.293263942,0.022593439,-0.044822425,0.114795268,0.248638108,0.138457447,0.152257711,0.506580815,1.22878192,-2.419888364
0.823763609,-0.485190332,-0.293263942,0.022593439,-0.044822425,0.114795268,0.248638108,0.138457447,0.152257711,0.506580815,1.22878192,-2.419888364
0.823763609,-0.485190332,-0.293263942,0.022593439,-0.044822425,0.114795268,0.248638108,0.138457447,0.152257711,0.506580815,1.22878192,-2.419888364
0.823763609,-0.485190332,-0.293263942,0.022593439,-0.044822425,0.114795268,0.248638108,0.138457447,0.152257711,0.506580815,1.22878192,-2.419888364
0.823763609,-0.485190332,-0.293263942,0.022593439,-0.044822425,0.114795268,0.248638108,0.138457447,0.152257711,0.506580815,1.22878192,-2.419888364
0.823763609,-0.485190332,-0.293263942,0.022593439,-0.044822425,0.114795268,0.248638108,0.138457447,0.152257711,0.506580815,1.22878192,-2.419888364
0.818401754,-0.49142611,-0.297857136,0.062455475,-0.022351265,0.118076265,0.025400307,-0.060248524,0.241914153,0.513726476,1.221748546,-2.417461219
0.818401754,-0.49142611,-0.297857136,0.062455475,-0.022351265,0.118076265,0.025400307,-0.060248524,0.241914153,0.513726476,1.221748546,-2.417461219
0.818401754,-0.49142611,-0.297857136,0.062455475,-0.022351265,0.118076265,0.025400307,-0.060248524,0.241914153,0.513726476,1.221748546,-2.417461219
0.807427943,-0.498847365,-0.314978451,0.003406703,-0.117804736,0.013310373,-0.987004757,-0.074321434,0.405762047,0.522268348,1.198852595,-2.388135868
0.807427943,-0.498847365,-0.314978451,0.003406703,-0.117804736,0.013310373,-0.987004757,-0.074321434,0.405762047,0.522268348,1.198852595,-2.388135868
0.807427943,-0.498847365,-0.314978451,0.003406703,-0.117804736,0.013310373,-0.987004757,-0.074321434,0.405762047,0.522268348,1.198852595,-2.388135868
0.804384708,-0.499540508,-0.321596652,0.003169119,-0.099838495,0.016144276,-1.115478158,-0.014678121,0.371232718,0.523068291,1.190458447,-2.364268172
0.798317969,-0.495510459,-0.34228301,0.042027116,-0.136690348,0.075160861,-1.846006989,-0.039640367,0.416519165,0.518422405,1.165749277,-2.307554846
0.787208676,-0.453371674,-0.418039113,-0.035471261,-0.020839721,0.054710507,-1.870287061,0.043999828,0.27372241,0.470544494,1.082626331,-2.134721924
0.787208676,-0.453371674,-0.418039113,-0.035471261,-0.020839721,0.054710507,-1.870287061,0.043999828,0.27372241,0.470544494,1.082626331,-2.134721924
0.787208676,-0.453371674,-0.418039113,-0.035471261,-0.020839721,0.054710507,-1.870287061,0.043999828,0.27372241,0.470544494,1.082626331,-2.134721924
0.773967266,-0.450872928,-0.444621414,0.007479072,-0.156852901,0.142084002,-1.08436501,-0.01011293,0.335516512,0.467743073,1.049360007,-2.081588707
0.773967266,-0.450872928,-0.444621414,0.007479072,-0.156852901,0.142084002,-1.08436501,-0.01011293,0.335516512,0.467743073,1.049360007,-2.081588707
0.773967266,-0.450872928,-0.444621414,0.007479072,-0.156852901,0.142084002,-1.08436501,-0.01011293,0.335516512,0.467743073,1.049360007,-2.081588707
0.773967266,-0.450872928,-0.444621414,0.007479072,-0.156852901,0.142084002,-1.08436501,-0.01011293,0.335516512,0.467743073,1.049360007,-2.081588707
0.761820018,-0.42709288,-0.487054288,0.029605389,0.015610337,0.066612124,-0.671082199,-0.242408529,0.292765379,0.441275224,1.001958668,-1.9753952
0.761820018,-0.42709288,-0.487054288,0.029605389,0.015610337,0.066612124,-0.671082199,-0.242408529,0.292765379,0.441275224,1.001958668,-1.9753952
0.761820018,-0.42709288,-0.487054288,0.029605389,0.015610337,0.066612124,-0.671082199,-0.242408529,0.292765379,0.441275224,1.001958668,-1.9753952
0.754404306,-0.420112729,-0.504360497,-0.070049822,-0.020056337,-0.051564395,-0.363539487,-0.01352266,0.259291053,0.433569553,0.981487825,-1.941078219
0.754404306,-0.420112729,-0.504360497,-0.070049822,-0.020056337,-0.051564395,-0.363539487,-0.01352266,0.259291053,0.433569553,0.981487825,-1.941078219
0.754404306,-0.420112729,-0.504360497,-0.070049822,-0.020056337,-0.051564395,-0.363539487,-0.01352266,0.259291053,0.433569553,0.981487825,-1.941078219
0.743442118,-0.428659528,-0.513366222,0.026681662,-0.158954918,0.085904837,-0.892971337,0.143580586,0.255768269,0.44300857,0.966456999,-1.893524016
0.743442118,-0.428659528,-0.513366222,0.026681662,-0.158954918,0.085904837,-0.892971337,0.143580586,0.255768269,0.44300857,0.966456999,-1.893524016
0.743442118,-0.428659528,-0.513366222,0.026681662,-0.158954918,0.085904837,-0.892971337,0.143580586,0.255768269,0.44300857,0.966456999,-1.893524016
0.744212389,-0.420114815,-0.519279778,0.026323199,-0.128986418,0.033773899,-1.22536695,0.127855778,0.210990265,0.43357184,0.961577008,-1.872499353
0.744212389,-0.420114815,-0.519279778,0.026323199,-0.128986418,0.033773899,-1.22536695,0.127855778,0.210990265,0.43357184,0.961577008,-1.872499353
0.744212389,-0.420114815,-0.519279778,0.026323199,-0.128986418,0.033773899,-1.22536695,0.127855778,0.210990265,0.43357184,0.961577008,-1.872499353
0.744212389,-0.420114815,-0.519279778,0.026323199,-0.128986418,0.033773899,-1.22536695,0.127855778,0.210990265,0.43357184,0.961577008,-1.872499353
0.743926108,-0.407229275,-0.529847324,0.00556767,-0.000819802,0.045913219,-0.983642936,-0.529392242,-0.76816237,0.419418342,0.951908604,-1.853998021
0.743926108,-0.407229275,-0.529847324,0.00556767,-0.000819802,0.045913219,-0.983642936,-0.529392242,-0.76816237,0.419418342,0.951908604,-1.853998021
0.743926108,-0.407229275,-0.529847324,0.00556767,-0.000819802,0.045913219,-0.983642936,-0.529392242,-0.76816237,0.419418342,0.951908604,-1.853998021
0.743926108,-0.407229275,-0.529847324,0.00556767,-0.000819802,0.045913219,-0.983642936,-0.529392242,-0.76816237,0.419418342,0.951908604,-1.853998021
0.743926108,-0.407229275,-0.529847324,0.00556767,-0.000819802,0.045913219,-0.983642936,-0.529392242,-0.76816237,0.419418342,0.951908604,-1.853998021
0.74703896,-0.388061225,-0.53976047,-0.039674878,0.066895753,0.070138931,-1.052766085,0.203736782,-0.086901233,0.398527043,0.945106907,-1.845207463
0.74703896,-0.388061225,-0.53976047,-0.039674878,0.066895753,0.070138931,-1.052766085,0.203736782,-0.086901233,0.398527043,0.945106907,-1.845207463
0.74703896,-0.388061225,-0.53976047,-0.039674878,0.066895753,0.070138931,-1.052766085,0.203736782,-0.086901233,0.398527043,0.945106907,-1.845207463
0.747596085,-0.381695747,-0.543514907,-0.006693184,-0.032884091,0.006129146,-0.998298466,0.188731447,0.408405989,0.39163026,0.942167461,-1.822067574
0.747596085,-0.381695747,-0.543514907,-0.006693184,-0.032884091,0.006129146,-0.998298466,0.188731447,0.408405989,0.39163026,0.942167461,-1.822067574
0.747596085,-0.381695747,-0.543514907,-0.006693184,-0.032884091,0.006129146,-0.998298466,0.188731447,0.408405989,0.39163026,0.942167461,-1.822067574
0.746172428,-0.373983055,-0.55078423,0.061380684,0.002219498,0.003892183,-1.033597231,-0.064286768,0.147791058,0.383300033,0.934924997,-1.801886768
0.746172428,-0.373983055,-0.55078423,0.061380684,0.002219498,0.003892183,-1.033597231,-0.064286768,0.147791058,0.383300033,0.934924997,-1.801886768
0.746172428,-0.373983055,-0.55078423,0.061380684,0.002219498,0.003892183,-1.033597231,-0.064286768,0.147791058,0.383300033,0.934924997,-1.801886768
0.746172428,-0.373983055,-0.55078423,0.061380684,0.002219498,0.003892183,-1.033597231,-0.064286768,0.147791058,0.383300033,0.934924997,-1.801886768
0.746172428,-0.373983055,-0.55078423,0.061380684,0.002219498,0.003892183,-1.033597231,-0.064286768,0.147791058,0.383300033,0.934924997,-1.801886768
0.746172428,-0.373983055,-0.55078423,0.061380684,0.002219498,0.003892183,-1.033597231,-0.064286768,0.147791058,0.383300033,0.934924997,-1.801886768
0.744168401,-0.366567224,-0.558428049,-0.02366662,-0.053261578,0.026916862,-1.369426012,0.025734611,0.342392176,0.375316718,0.92703577,-1.778926694
0.744168401,-0.366567224,-0.558428049,-0.02366662,-0.053261578,0.026916862,-1.369426012,0.025734611,0.342392176,0.375316718,0.92703577,-1.778926694
0.744168401,-0.366567224,-0.558428049,-0.02366662,-0.053261578,0.026916862,-1.369426012,0.025734611,0.342392176,0.375316718,0.92703577,-1.778926694
0.742749989,-0.353539824,-0.568622947,-0.049683571,-0.065312505,-0.01608032,-1.849179983,0.187894732,0.361054391,0.361352609,0.91740819,-1.746080198
0.742749989,-0.353539824,-0.568622947,-0.049683571,-0.065312505,-0.01608032,-1.849179983,0.187894732,0.361054391,0.361352609,0.91740819,-1.746080198
0.742749989,-0.353539824,-0.568622947,-0.049683571,-0.065312505,-0.01608032,-1.849179983,0.187894732,0.361054391,0.361352609,0.91740819,-1.746080198
0.742749989,-0.353539824,-0.568622947,-0.049683571,-0.065312505,-0.01608032,-1.849179983,0.187894732,0.361054391,0.361352609,0.91740819,-1.746080198
0.742749989,-0.353539824,-0.568622947,-0.049683571,-0.065312505,-0.01608032,-1.849179983,0.187894732,0.361054391,0.361352609,0.91740819,-1.746080198
0.743177772,-0.336800605,-0.578145385,-0.051240623,-0.021275938,-0.060848713,-1.826911092,0.249149814,0.270000696,0.343516905,0.909654026,-1.710866646
0.743177772,-0.336800605,-0.578145385,-0.051240623,-0.021275938,-0.060848713,-1.826911092,0.249149814,0.270000696,0.343516905,0.909654026,-1.710866646
0.743177772,-0.336800605,-0.578145385,-0.051240623,-0.021275938,-0.060848713,-1.826911092,0.249149814,0.270000696,0.343516905,0.909654026,-1.710866646
0.743177772,-0.336800605,-0.578145385,-0.051240623,-0.021275938,-0.060848713,-1.826911092,0.249149814,0.270000696,0.343516905,0.909654026,-1.710866646
0.744570911,-0.320888191,-0.585358799,-0.03981632,0.03413102,-0.015686572,-1.492026091,0.271373332,0.222479239,0.32666711,0.904545809,-1.679213723
0.744570911,-0.320888191,-0.585358799,-0.03981632,0.03413102,-0.015686572,-1.492026091,0.271373332,0.222479239,0.32666711,0.904545809,-1.679213723
0.744570911,-0.320888191,-0.585358799,-0.03981632,0.03413102,-0.015686572,-1.492026091,0.271373332,0.222479239,0.32666711,0.904545809,-1.679213723
0.744570911,-0.320888191,-0.585358799,-0.03981632,0.03413102,-0.015686572,-1.492026091,0.271373332,0.222479239,0.32666711,0.904545809,-1.679213723
0.744570911,-0.320888191,-0.585358799,-0.03981632,0.03413102,-0.015686572,-1.492026091,0.271373332,0.222479239,0.32666711,0.904545809,-1.679213723
0.744570911,-0.320888191,-0.585358799,-0.03981632,0.03413102,-0.015686572,-1.492026091,0.271373332,0.222479239,0.32666711,0.904545809,-1.679213723
0.746394575,-0.308688134,-0.589581788,-0.015501857,-0.046229959,0.016398847,-1.122212887,0.255644739,0.172798619,0.313813501,0.902240449,-1.655569175
0.746394575,-0.308688134,-0.589581788,-0.015501857,-0.046229959,0.016398847,-1.122212887,0.255644739,0.172798619,0.313813501,0.902240449,-1.655569175
0.746394575,-0.308688134,-0.589581788,-0.015501857,-0.046229959,0.016398847,-1.122212887,0.255644739,0.172798619,0.313813501,0.902240449,-1.655569175
0.748667359,-0.298588574,-0.591897011,-0.00092876,-0.079584032,0.055960894,-0.892669261,0.242816865,0.070025742,0.303213424,0.901812932,-1.637396783
0.748667359,-0.298588574,-0.591897011,-0.00092876,-0.079584032,0.055960894,-0.892669261,0.242816865,0.070025742,0.303213424,0.901812932,-1.637396783
0.752037823,-0.287683606,-0.593023777,0.012012601,0.064738512,0.058598399,-0.165342197,0.081429213,0.037334159,0.291807302,0.903072616,-1.620761813
0.752037823,-0.287683606,-0.593023777,0.012012601,0.064738512,0.058598399,-0.165342197,0.081429213,0.037334159,0.291807302,0.903072616,-1.620761813
0.751816869,-0.287978202,-0.593161047,0.028148472,0.092163235,0.112385571,0.006480879,-0.036086909,0.097762294,0.292114914,0.90281721,-1.61885088
0.751816869,-0.287978202,-0.593161047,0.028148472,0.092163235,0.112385571,0.006480879,-0.036086909,0.097762294,0.292114914,0.90281721,-1.61885088
0.751816869,-0.287978202,-0.593161047,0.028148472,0.092163235,0.112385571,0.006480879,-0.036086909,0.097762294,0.292114914,0.90281721,-1.61885088
0.751816869,-0.287978202,-0.593161047,0.028148472,0.092163235,0.112385571,0.006480879,-0.036086909,0.097762294,0.292114914,0.90281721,-1.61885088
0.751816869,-0.287978202,-0.593161047,0.028148472,0.092163235,0.112385571,0.006480879,-0.036086909,0.097762294,0.292114914,0.90281721,-1.61885088
0.751816869,-0.287978202,-0.593161047,0.028148472,0.092163235,0.112385571,0.006480879,-0.036086909,0.097762294,0.292114914,0.90281721,-1.61885088
0.751816869,-0.287978202,-0.593161047,0.028148472,0.092163235,0.112385571,0.006480879,-0.036086909,0.097762294,0.292114914,0.90281721,-1.61885088
0.750472605,-0.290541679,-0.593612909,0.04179132,0.100525081,0.085707307,0.172047317,-0.078907944,0.125721112,0.294792894,0.901576271,-1.618581238
0.750472605,-0.290541679,-0.593612909,0.04179132,0.100525081,0.085707307,0.172047317,-0.078907944,0.125721112,0.294792894,0.901576271,-1.618581238
0.74928385,-0.294662714,-0.593083084,0.022029936,0.007661223,0.067813158,0.21358335,0.016017862,0.076695204,0.299102537,0.901239398,-1.620736526
0.74928385,-0.294662714,-0.593083084,0.022029936,0.007661223,0.067813158,0.21358335,0.016017862,0.076695204,0.299102537,0.901239398,-1.620736526
0.74928385,-0.294662714,-0.593083084,0.022029936,0.007661223,0.067813158,0.21358335,0.016017862,0.076695204,0.299102537,0.901239398,-1.620736526
0.74928385,-0.294662714,-0.593083084,0.022029936,0.007661223,0.067813158,0.21358335,0.016017862,0.076695204,0.299102537,0.901239398,-1.620736526
0.749553919,-0.296838284,-0.591655195,0.012055337,-0.043507934,0.016412675,-0.109043747,0.076534107,0.063834056,0.301380006,0.902587346,-1.621220404
0.749553919,-0.296838284,-0.591655195,0.012055337,-0.043507934,0.016412675,-0.109043747,0.076534107,0.063834056,0.301380006,0.902587346,-1.621220404
0.749553919,-0.296838284,-0.591655195,0.012055337,-0.043507934,0.016412675,-0.109043747,0.076534107,0.063834056,0.301380006,0.902587346,-1.621220404
0.750562787,-0.294755459,-0.591417611,0.009566307,-0.0141882,-0.095519245,-0.238090396,0.148703784,0.020040818,0.299199597,0.903436662,-1.616817535
0.750562787,-0.294755459,-0.591417611,0.009566307,-0.0141882,-0.095519245,-0.238090396,0.148703784,0.020040818,0.299199597,0.903436662,-1.616817535
0.750562787,-0.294755459,-0.591417611,0.009566307,-0.0141882,-0.095519245,-0.238090396,0.148703784,0.020040818,0.299199597,0.903436662,-1.616817535
0.750562787,-0.294755459,-0.591417611,0.009566307,-0.0141882,-0.095519245,-0.238090396,0.148703784,0.020040818,0.299199597,0.903436662,-1.616817535
0.750562787,-0.294755459,-0.591417611,0.009566307,-0.0141882,-0.095519245,-0.238090396,0.148703784,0.020040818,0.299199597,0.903436662,-1.616817535
0.750562787,-0.294755459,-0.591417611,0.009566307,-0.0141882,-0.095519245,-0.238090396,0.148703784,0.020040818,0.299199597,0.903436662,-1.616817535
0.755319118,-0.290462554,-0.587473035,-0.033108115,0.098797977,-0.087500989,-0.033410892,0.273406059,0.075352281,0.294710212,0.909751013,-1.615118494
0.755319118,-0.290462554,-0.587473035,-0.033108115,0.098797977,-0.087500989,-0.033410892,0.273406059,0.075352281,0.294710212,0.909751013,-1.615118494
0.755319118,-0.290462554,-0.587473035,-0.033108115,0.098797977,-0.087500989,-0.033410892,0.273406059,0.075352281,0.294710212,0.909751013,-1.615118494
0.75994122,-0.292455614,-0.580481708,-0.069727898,-0.015053749,-0.037256598,-0.037426349,0.273399472,0.197915688,0.296793702,0.91848946,-1.614015985
0.75994122,-0.292455614,-0.580481708,-0.069727898,-0.015053749,-0.037256598,-0.037426349,0.273399472,0.197915688,0.296793702,0.91848946,-1.614015985
0.75994122,-0.292455614,-0.580481708,-0.069727898,-0.015053749,-0.037256598,-0.037426349,0.273399472,0.197915688,0.296793702,0.91848946,-1.614015985
0.75994122,-0.292455614,-0.580481708,-0.069727898,-0.015053749,-0.037256598,-0.037426349,0.273399472,0.197915688,0.296793702,0.91848946,-1.614015985
0.762586713,-0.292839676,-0.576807022,-0.044632971,-0.180425823,-0.045814157,-0.434797823,0.24638781,-0.054266222,0.297195374,0.923223107,-1.609895209
0.768310666,-0.268470436,-0.581052721,-0.076922655,0.036904067,-0.073367834,-0.571047008,0.309175879,-0.41741088,0.271804816,0.923292508,-1.592554763
0.768310666,-0.268470436,-0.581052721,-0.076922655,0.036904067,-0.073367834,-0.571047008,0.309175879,-0.41741088,0.271804816,0.923292508,-1.592554763
0.768310666,-0.268470436,-0.581052721,-0.076922655,0.036904067,-0.073367834,-0.571047008,0.309175879,-0.41741088,0.271804816,0.923292508,-1.592554763
0.768310666,-0.268470436,-0.581052721,-0.076922655,0.036904067,-0.073367834,-0.571047008,0.309175879,-0.41741088,0.271804816,0.923292508,-1.592554763
0.768310666,-0.268470436,-0.581052721,-0.076922655,0.036904067,-0.073367834,-0.571047008,0.309175879,-0.41741088,0.271804816,0.923292508,-1.592554763
0.773521602,-0.25478822,-0.580299377,-0.059535146,0.204068899,-0.070855737,-0.58253932,0.294861585,-0.425520957,0.257628679,0.927164367,-1.58811375
0.773521602,-0.25478822,-0.580299377,-0.059535146,0.204068899,-0.070855737,-0.58253932,0.294861585,-0.425520957,0.257628679,0.927164367,-1.58811375
0.773521602,-0.25478822,-0.580299377,-0.059535146,0.204068899,-0.070855737,-0.58253932,0.294861585,-0.425520957,0.257628679,0.927164367,-1.58811375
0.77815944,-0.240179554,-0.580328882,-0.00458765,0.37175703,-0.068613768,-0.841116965,0.137820974,-0.432857364,0.242550822,0.930007177,-1.581653937
0.77815944,-0.240179554,-0.580328882,-0.00458765,0.37175703,-0.068613768,-0.841116965,0.137820974,-0.432857364,0.242550822,0.930007177,-1.581653937
0.77815944,-0.240179554,-0.580328882,-0.00458765,0.37175703,-0.068613768,-0.841116965,0.137820974,-0.432857364,0.242550822,0.930007177,-1.581653937
0.77815944,-0.240179554,-0.580328882,-0.00458765,0.37175703,-0.068613768,-0.841116965,0.137820974,-0.432857364,0.242550822,0.930007177,-1.581653937
0.782227933,-0.222252354,-0.581999481,-0.007740378,0.405480653,-0.132723689,-0.772239625,0.201266259,-0.613542736,0.224123995,0.931128242,-1.573626017
0.782227933,-0.222252354,-0.581999481,-0.007740378,0.405480653,-0.132723689,-0.772239625,0.201266259,-0.613542736,0.224123995,0.931128242,-1.573626017
0.782227933,-0.222252354,-0.581999481,-0.007740378,0.405480653,-0.132723689,-0.772239625,0.201266259,-0.613542736,0.224123995,0.931128242,-1.573626017
0.782227933,-0.222252354,-0.581999481,-0.007740378,0.405480653,-0.132723689,-0.772239625,0.201266259,-0.613542736,0.224123995,0.931128242,-1.573626017
0.782227933,-0.222252354,-0.581999481,-0.007740378,0.405480653,-0.132723689,-0.772239625,0.201266259,-0.613542736,0.224123995,0.931128242,-1.573626017
0.789501548,-0.206304982,-0.578035891,-0.081664622,0.286826402,-0.086516559,-0.141884297,0.566088974,-0.549957335,0.207797199,0.938815537,-1.573703783
0.789501548,-0.206304982,-0.578035891,-0.081664622,0.286826402,-0.086516559,-0.141884297,0.566088974,-0.549957335,0.207797199,0.938815537,-1.573703783
0.789501548,-0.206304982,-0.578035891,-0.081664622,0.286826402,-0.086516559,-0.141884297,0.566088974,-0.549957335,0.207797199,0.938815537,-1.573703783
0.789501548,-0.206304982,-0.578035891,-0.081664622,0.286826402,-0.086516559,-0.141884297,0.566088974,-0.549957335,0.207797199,0.938815537,-1.573703783
0.795796692,-0.206722617,-0.569186568,-0.141380668,-0.167696834,0.012986958,-0.116567418,0.487925231,1.090113044,0.208224024,0.949914457,-1.570245314
0.795796692,-0.206722617,-0.569186568,-0.141380668,-0.167696834,0.012986958,-0.116567418,0.487925231,1.090113044,0.208224024,0.949914457,-1.570245314
0.795796692,-0.206722617,-0.569186568,-0.141380668,-0.167696834,0.012986958,-0.116567418,0.487925231,1.090113044,0.208224024,0.949914457,-1.570245314
0.795796692,-0.206722617,-0.569186568,-0.141380668,-0.167696834,0.012986958,-0.116567418,0.487925231,1.090113044,0.208224024,0.949914457,-1.570245314
0.795796692,-0.206722617,-0.569186568,-0.141380668,-0.167696834,0.012986958,-0.116567418,0.487925231,1.090113044,0.208224024,0.949914457,-1.570245314
0.793165803,-0.228462294,-0.564529002,-0.115465045,-0.400366753,0.061353445,-1.605213284,0.665549278,1.986648917,0.230497915,0.952233583,-1.536615622
0.791677356,-0.232216462,-0.565086186,0.00487411,0.46837765,0.035131514,-1.602140069,0.251604646,1.306875229,0.234355819,0.950879511,-1.486908831
0.791677356,-0.232216462,-0.565086186,0.00487411,0.46837765,0.035131514,-1.602140069,0.251604646,1.306875229,0.234355819,0.950879511,-1.486908831
0.791677356,-0.232216462,-0.565086186,0.00487411,0.46837765,0.035131514,-1.602140069,0.251604646,1.306875229,0.234355819,0.950879511,-1.486908831
0.780363739,-0.272808343,-0.56267941,-0.228730798,0.287656069,0.095636845,-0.488090158,0.712251782,2.484409809,0.276310883,0.946083678,-1.419203469
0.780363739,-0.272808343,-0.56267941,-0.228730798,0.287656069,0.095636845,-0.488090158,0.712251782,2.484409809,0.276310883,0.946083678,-1.419203469
0.780363739,-0.272808343,-0.56267941,-0.228730798,0.287656069,0.095636845,-0.488090158,0.712251782,2.484409809,0.276310883,0.946083678,-1.419203469
0.780363739,-0.272808343,-0.56267941,-0.228730798,0.287656069,0.095636845,-0.488090158,0.712251782,2.484409809,0.276310883,0.946083678,-1.419203469
0.780363739,-0.272808343,-0.56267941,-0.228730798,0.287656069,0.095636845,-0.488090158,0.712251782,2.484409809,0.276310883,0.946083678,-1.419203469
0.780363739,-0.272808343,-0.56267941,-0.228730798,0.287656069,0.095636845,-0.488090158,0.712251782,2.484409809,0.276310883,0.946083678,-1.419203469
0.773115277,-0.303230941,-0.557085037,-0.197037756,0.056833088,0.022507071,-2.086081505,0.779075921,3.164381027,0.308081401,0.946396814,-1.364481295
0.773115277,-0.303230941,-0.557085037,-0.197037756,0.056833088,0.022507071,-2.086081505,0.779075921,3.164381027,0.308081401,0.946396814,-1.364481295
0.757353246,-0.320358425,-0.569022298,-0.085725486,-0.128569067,-0.07085675,-4.362004757,0.234909311,3.738910913,0.326107836,0.926444469,-1.266567561
0.757353246,-0.320358425,-0.569022298,-0.085725486,-0.128569067,-0.07085675,-4.362004757,0.234909311,3.738910913,0.326107836,0.926444469,-1.266567561
0.757353246,-0.320358425,-0.569022298,-0.085725486,-0.128569067,-0.07085675,-4.362004757,0.234909311,3.738910913,0.326107836,0.926444469,-1.266567561
0.730009258,-0.315572709,-0.60621798,-0.016206145,-0.144509047,0.072402954,-6.135629177,-0.648503959,4.041962624,0.321060157,0.877776866,-1.127303531
0.692978024,-0.291026443,-0.659609795,-0.037387013,-0.092608929,0.292604029,-7.049606323,-1.184916258,4.215457916,0.295299532,0.8100631,-0.96602349
0.692978024,-0.291026443,-0.659609795,-0.037387013,-0.092608929,0.292604029,-7.049606323,-1.184916258,4.215457916,0.295299532,0.8100631,-0.96602349
0.692978024,-0.291026443,-0.659609795,-0.037387013,-0.092608929,0.292604029,-7.049606323,-1.184916258,4.215457916,0.295299532,0.8100631,-0.96602349
0.548874378,-0.153562948,-0.82167834,-0.033739984,0.099196494,0.378928602,-5.041891575,-2.666099787,3.648864985,0.154172993,0.588919414,-0.522659241
0.548874378,-0.153562948,-0.82167834,-0.033739984,0.099196494,0.378928602,-5.041891575,-2.666099787,3.648864985,0.154172993,0.588919414,-0.522659241
0.548874378,-0.153562948,-0.82167834,-0.033739984,0.099196494,0.378928602,-5.041891575,-2.666099787,3.648864985,0.154172993,0.588919414,-0.522659241
0.494060963,-0.119355142,-0.861195743,-0.049437165,0.4246687,0.360035539,-2.90237093,-2.824231148,2.932741642,0.119640359,0.520850593,-0.421623939
0.494060963,-0.119355142,-0.861195743,-0.049437165,0.4246687,0.360035539,-2.90237093,-2.824231148,2.932741642,0.119640359,0.520850593,-0.421623939
0.494060963,-0.119355142,-0.861195743,-0.049437165,0.4246687,0.360035539,-2.90237093,-2.824231148,2.932741642,0.119640359,0.520850593,-0.421623939
0.436070323,-0.113598429,-0.892713904,-0.166357785,0.391766608,0.065107226,-0.626945317,-3.144231558,2.124622822,0.113844184,0.454386886,-0.36190325
0.436070323,-0.113598429,-0.892713904,-0.166357785,0.391766608,0.065107226,-0.626945317,-3.144231558,2.124622822,0.113844184,0.454386886,-0.36190325
0.436070323,-0.113598429,-0.892713904,-0.166357785,0.391766608,0.065107226,-0.626945317,-3.144231558,2.124622822,0.113844184,0.454386886,-0.36190325
0.436070323,-0.113598429,-0.892713904,-0.166357785,0.391766608,0.065107226,-0.626945317,-3.144231558,2.124622822,0.113844184,0.454386886,-0.36190325
0.436070323,-0.113598429,-0.892713904,-0.166357785,0.391766608,0.065107226,-0.626945317,-3.144231558,2.124622822,0.113844184,0.454386886,-0.36190325
0.436070323,-0.113598429,-0.892713904,-0.166357785,0.391766608,0.065107226,-0.626945317,-3.144231558,2.124622822,0.113844184,0.454386886,-0.36190325
0.436070323,-0.113598429,-0.892713904,-0.166357785,0.391766608,0.065107226,-0.626945317,-3.144231558,2.124622822,0.113844184,0.454386886,-0.36190325
0.436070323,-0.113598429,-0.892713904,-0.166357785,0.391766608,0.065107226,-0.626945317,-3.144231558,2.124622822,0.113844184,0.454386886,-0.36190325
0.373311877,-0.12449003,-0.919315219,-0.254371256,-0.38875407,-0.301128864,-0.537220895,-3.031517506,2.41109848,0.124813845,0.385733342,-0.318447587
0.373311877,-0.12449003,-0.919315219,-0.254371256,-0.38875407,-0.301128864,-0.537220895,-3.031517506,2.41109848,0.124813845,0.385733342,-0.318447587
0.373311877,-0.12449003,-0.919315219,-0.254371256,-0.38875407,-0.301128864,-0.537220895,-3.031517506,2.41109848,0.124813845,0.385733342,-0.318447587
0.373311877,-0.12449003,-0.919315219,-0.254371256,-0.38875407,-0.301128864,-0.537220895,-3.031517506,2.41109848,0.124813845,0.385733342,-0.318447587
0.318716109,-0.12080171,-0.940120757,-0.321677685,-0.520127952,-0.208957911,-1.875589609,-2.14303875,2.764303207,0.12109747,0.326856334,-0.260270485
0.318716109,-0.12080171,-0.940120757,-0.321677685,-0.520127952,-0.208957911,-1.875589609,-2.14303875,2.764303207,0.12109747,0.326856334,-0.260270485
0.318716109,-0.12080171,-0.940120757,-0.321677685,-0.520127952,-0.208957911,-1.875589609,-2.14303875,2.764303207,0.12109747,0.326856334,-0.260270485
0.274571687,-0.091261074,-0.957226098,-0.236944795,0.108717516,-0.037174106,-2.549283981,-2.145489931,2.085254908,0.091388231,0.279341029,-0.198125831
0.274571687,-0.091261074,-0.957226098,-0.236944795,0.108717516,-0.037174106,-2.549283981,-2.145489931,2.085254908,0.091388231,0.279341029,-0.198125831
0.274571687,-0.091261074,-0.957226098,-0.236944795,0.108717516,-0.037174106,-2.549283981,-2.145489931,2.085254908,0.091388231,0.279341029,-0.198125831
0.274571687,-0.091261074,-0.957226098,-0.236944795,0.108717516,-0.037174106,-2.549283981,-2.145489931,2.085254908,0.091388231,0.279341029,-0.198125831
0.274571687,-0.091261074,-0.957226098,-0.236944795,0.108717516,-0.037174106,-2.549283981,-2.145489931,2.085254908,0.091388231,0.279341029,-0.198125831
0.227999404,-0.060080245,-0.971805871,-0.050723806,-0.066918418,-0.234172642,-1.469422221,-2.285014391,1.281328678,0.060116448,0.230446272,-0.156886944
0.227999404,-0.060080245,-0.971805871,-0.050723806,-0.066918418,-0.234172642,-1.469422221,-2.285014391,1.281328678,0.060116448,0.230446272,-0.156886944
0.227999404,-0.060080245,-0.971805871,-0.050723806,-0.066918418,-0.234172642,-1.469422221,-2.285014391,1.281328678,0.060116448,0.230446272,-0.156886944
0.227999404,-0.060080245,-0.971805871,-0.050723806,-0.066918418,-0.234172642,-1.469422221,-2.285014391,1.281328678,0.060116448,0.230446272,-0.156886944
0.188730299,-0.040947665,-0.981174886,-0.28921026,-0.347663015,-0.226955056,-1.045515776,-1.582402468,1.118388414,0.040959118,0.190030376,-0.127762596
0.188730299,-0.040947665,-0.981174886,-0.28921026,-0.347663015,-0.226955056,-1.045515776,-1.582402468,1.118388414,0.040959118,0.190030376,-0.127762596
0.188730299,-0.040947665,-0.981174886,-0.28921026,-0.347663015,-0.226955056,-1.045515776,-1.582402468,1.118388414,0.040959118,0.190030376,-0.127762596
0.188730299,-0.040947665,-0.981174886,-0.28921026,-0.347663015,-0.226955056,-1.045515776,-1.582402468,1.118388414,0.040959118,0.190030376,-0.127762596
0.188730299,-0.040947665,-0.981174886,-0.28921026,-0.347663015,-0.226955056,-1.045515776,-1.582402468,1.118388414,0.040959118,0.190030376,-0.127762596
0.188730299,-0.040947665,-0.981174886,-0.28921026,-0.347663015,-0.226955056,-1.045515776,-1.582402468,1.118388414,0.040959118,0.190030376,-0.127762596
0.135713384,-0.019193063,-0.990562201,-0.049120337,-0.102907717,-0.153160334,-0.543756545,-1.246835589,0.782953918,0.019194241,0.136158704,-0.090219819
0.135713384,-0.019193063,-0.990562201,-0.049120337,-0.102907717,-0.153160334,-0.543756545,-1.246835589,0.782953918,0.019194241,0.136158704,-0.090219819
0.135713384,-0.019193063,-0.990562201,-0.049120337,-0.102907717,-0.153160334,-0.543756545,-1.246835589,0.782953918,0.019194241,0.136158704,-0.090219819
0.108907178,-0.008795901,-0.994013011,0.016534857,0.009299448,-0.201848865,-0.699217856,-1.433512568,0.760619402,0.008796015,0.109127861,-0.073375351
0.081302404,0.00566088,-0.996673405,-0.037601583,-0.207336351,-0.266891658,-0.842064857,-1.228163362,0.790839076,-0.00566091,0.081393549,-0.056511323
0.081302404,0.00566088,-0.996673405,-0.037601583,-0.207336351,-0.266891658,-0.842064857,-1.228163362,0.790839076,-0.00566091,0.081393549,-0.056511323
0.081302404,0.00566088,-0.996673405,-0.037601583,-0.207336351,-0.266891658,-0.842064857,-1.228163362,0.790839076,-0.00566091,0.081393549,-0.056511323
0.081302404,0.00566088,-0.996673405,-0.037601583,-0.207336351,-0.266891658,-0.842064857,-1.228163362,0.790839076,-0.00566091,0.081393549,-0.056511323
0.081302404,0.00566088,-0.996673405,-0.037601583,-0.207336351,-0.266891658,-0.842064857,-1.228163362,0.790839076,-0.00566091,0.081393549,-0.056511323
0.060935251,0.019427713,-0.99795264,-0.197791576,-0.18350558,-0.185381711,-0.605945528,-0.902969062,0.416891605,-0.019428935,0.060984548,-0.042317448
0.060935251,0.019427713,-0.99795264,-0.197791576,-0.18350558,-0.185381711,-0.605945528,-0.902969062,0.416891605,-0.019428935,0.060984548,-0.042317448
0.060935251,0.019427713,-0.99795264,-0.197791576,-0.18350558,-0.185381711,-0.605945528,-0.902969062,0.416891605,-0.019428935,0.060984548,-0.042317448
0.060935251,0.019427713,-0.99795264,-0.197791576,-0.18350558,-0.185381711,-0.605945528,-0.902969062,0.416891605,-0.019428935,0.060984548,-0.042317448
0.060935251,0.019427713,-0.99795264,-0.197791576,-0.18350558,-0.185381711,-0.605945528,-0.902969062,0.416891605,-0.019428935,0.060984548,-0.042317448
0.043616768,0.027664887,-0.998665214,-0.084891975,-0.140381694,-0.036841989,-0.201990187,-0.826912045,0.029066484,-0.027668417,0.043647325,-0.038767726
0.027174454,0.030155031,-0.999175787,-0.026167495,-0.119754784,-0.073639154,-0.126006722,-0.833298564,0.291164517,-0.030159602,0.027190168,-0.035686694
0.027174454,0.030155031,-0.999175787,-0.026167495,-0.119754784,-0.073639154,-0.126006722,-0.833298564,0.291164517,-0.030159602,0.027190168,-0.035686694
0.027174454,0.030155031,-0.999175787,-0.026167495,-0.119754784,-0.073639154,-0.126006722,-0.833298564,0.291164517,-0.030159602,0.027190168,-0.035686694
0.027174454,0.030155031,-0.999175787,-0.026167495,-0.119754784,-0.073639154,-0.126006722,-0.833298564,0.291164517,-0.030159602,0.027190168,-0.035686694
0.027174454,0.030155031,-0.999175787,-0.026167495,-0.119754784,-0.073639154,-0.126006722,-0.833298564,0.291164517,-0.030159602,0.027190168,-0.035686694
0.027174454,0.030155031,-0.999175787,-0.026167495,-0.119754784,-0.073639154,-0.126006722,-0.833298564,0.291164517,-0.030159602,0.027190168,-0.035686694
0.011050867,0.032741852,-0.999402761,0.006405128,-0.032085884,-0.124773264,-0.141808167,-0.803553104,0.352112412,-0.032747706,0.011057021,-0.029013248
0.011050867,0.032741852,-0.999402761,0.006405128,-0.032085884,-0.124773264,-0.141808167,-0.803553104,0.352112412,-0.032747706,0.011057021,-0.029013248
0.011050867,0.032741852,-0.999402761,0.006405128,-0.032085884,-0.124773264,-0.141808167,-0.803553104,0.352112412,-0.032747706,0.011057021,-0.029013248
-0.004696818,0.034809899,-0.999382913,0.007794352,0.014430046,-0.09079653,-0.027411947,-0.785089731,0.321038902,-0.034816933,-0.004699683,-0.022070295
-0.004696818,0.034809899,-0.999382913,0.007794352,0.014430046,-0.09079653,-0.027411947,-0.785089731,0.321038902,-0.034816933,-0.004699683,-0.022070295
-0.004696818,0.034809899,-0.999382913,0.007794352,0.014430046,-0.09079653,-0.027411947,-0.785089731,0.321038902,-0.034816933,-0.004699683,-0.022070295
-0.02079986,0.031498648,-0.999287367,-0.028333372,0.057765111,-0.050959826,0.380057216,-0.856939673,0.26719591,-0.031503859,-0.020811688,-0.016185236
-0.02079986,0.031498648,-0.999287367,-0.028333372,0.057765111,-0.050959826,0.380057216,-0.856939673,0.26719591,-0.031503859,-0.020811688,-0.016185236
-0.02079986,0.031498648,-0.999287367,-0.028333372,0.057765111,-0.050959826,0.380057216,-0.856939673,0.26719591,-0.031503859,-0.020811688,-0.016185236
-0.02079986,0.031498648,-0.999287367,-0.028333372,0.057765111,-0.050959826,0.380057216,-0.856939673,0.26719591,-0.031503859,-0.020811688,-0.016185236
-0.02079986,0.031498648,-0.999287367,-0.028333372,0.057765111,-0.050959826,0.380057216,-0.856939673,0.26719591,-0.031503859,-0.020811688,-0.016185236
-0.02079986,0.031498648,-0.999287367,-0.028333372,0.057765111,-0.050959826,0.380057216,-0.856939673,0.26719591,-0.031503859,-0.020811688,-0.016185236
-0.038876381,0.020791242,-0.999027729,-0.048388489,0.04340237,-0.036677897,0.684616208,-0.968043029,0.155773133,-0.02079274,-0.038894594,-0.011452823
-0.038876381,0.020791242,-0.999027729,-0.048388489,0.04340237,-0.036677897,0.684616208,-0.968043029,0.155773133,-0.02079274,-0.038894594,-0.011452823
-0.038876381,0.020791242,-0.999027729,-0.048388489,0.04340237,-0.036677897,0.684616208,-0.968043029,0.155773133,-0.02079274,-0.038894594,-0.011452823
-0.057546604,0.002928023,-0.998338521,-0.040216256,-0.047804162,-0.051420391,1.11343956,-0.815167487,-0.017106229,-0.002928027,-0.05757866,-0.009461427
-0.057546604,0.002928023,-0.998338521,-0.040216256,-0.047804162,-0.051420391,1.11343956,-0.815167487,-0.017106229,-0.002928027,-0.05757866,-0.009461427
-0.057546604,0.002928023,-0.998338521,-0.040216256,-0.047804162,-0.051420391,1.11343956,-0.815167487,-0.017106229,-0.002928027,-0.05757866,-0.009461427
-0.057546604,0.002928023,-0.998338521,-0.040216256,-0.047804162,-0.051420391,1.11343956,-0.815167487,-0.017106229,-0.002928027,-0.05757866,-0.009461427
-0.057546604,0.002928023,-0.998338521,-0.040216256,-0.047804162,-0.051420391,1.11343956,-0.815167487,-0.017106229,-0.002928027,-0.05757866,-0.009461427
-0.070831843,-0.021308281,-0.99726063,-0.10295023,-0.009117687,-0.0754475,1.221212983,-0.545780599,0.089854784,0.021309893,-0.070907331,-0.007463217
-0.070831843,-0.021308281,-0.99726063,-0.10295023,-0.009117687,-0.0754475,1.221212983,-0.545780599,0.089854784,0.021309893,-0.070907331,-0.007463217
-0.070831843,-0.021308281,-0.99726063,-0.10295023,-0.009117687,-0.0754475,1.221212983,-0.545780599,0.089854784,0.021309893,-0.070907331,-0.007463217
-0.079960875,-0.039865848,-0.996000469,-0.097025506,-0.070668682,-0.053712666,0.546468019,-0.280923516,0.197133884,0.039876415,-0.080110147,-0.002783331
-0.079960875,-0.039865848,-0.996000469,-0.097025506,-0.070668682,-0.053712666,0.546468019,-0.280923516,0.197133884,0.039876415,-0.080110147,-0.002783331
-0.079960875,-0.039865848,-0.996000469,-0.097025506,-0.070668682,-0.053712666,0.546468019,-0.280923516,0.197133884,0.039876415,-0.080110147,-0.002783331
-0.079489343,-0.040567473,-0.996009886,-0.099190772,-0.09531191,-0.090812624,-0.308942407,0.276788443,0.075410016,0.040578608,-0.079638987,0.001062222
-0.079489343,-0.040567473,-0.996009886,-0.099190772,-0.09531191,-0.090812624,-0.308942407,0.276788443,0.075410016,0.040578608,-0.079638987,0.001062222
-0.075546369,-0.032455359,-0.996613979,0.021149084,-0.094802834,0.044572353,-0.11084462,-0.039316997,0.145082146,0.03246106,-0.075658352,-0.000648387
-0.076654561,-0.03214673,-0.996539354,-0.016973034,0.028713621,-0.01046443,0.023565151,-0.051548582,-0.052802335,0.03215227,-0.076769584,0.000271333
-0.076654561,-0.03214673,-0.996539354,-0.016973034,0.028713621,-0.01046443,0.023565151,-0.051548582,-0.052802335,0.03215227,-0.076769584,0.000271333
-0.077561922,0.000739832,-0.996987283,-0.022596404,-0.04225903,-0.001975179,-0.362936139,-0.008330393,0.013801245,-0.000739832,-0.077639924,-0.003225807
-0.077561922,0.000739832,-0.996987283,-0.022596404,-0.04225903,-0.001975179,-0.362936139,-0.008330393,0.013801245,-0.000739832,-0.077639924,-0.003225807
-0.077561922,0.000739832,-0.996987283,-0.022596404,-0.04225903,-0.001975179,-0.362936139,-0.008330393,0.013801245,-0.000739832,-0.077639924,-0.003225807
-0.077561922,0.000739832,-0.996987283,-0.022596404,-0.04225903,-0.001975179,-0.362936139,-0.008330393,0.013801245,-0.000739832,-0.077639924,-0.003225807
-0.077561922,0.000739832,-0.996987283,-0.022596404,-0.04225903,-0.001975179,-0.362936139,-0.008330393,0.013801245,-0.000739832,-0.077639924,-0.003225807
-0.077561922,0.000739832,-0.996987283,-0.022596404,-0.04225903,-0.001975179,-0.362936139,-0.008330393,0.013801245,-0.000739832,-0.077639924,-0.003225807
-0.078067534,0.007596507,-0.996919155,-0.037990473,-0.051343519,0.004273832,-0.435862869,0.064536259,-0.0013425,-0.00759658,-0.078149309,-0.003672686
-0.078067534,0.007596507,-0.996919155,-0.037990473,-0.051343519,0.004273832,-0.435862869,0.064536259,-0.0013425,-0.00759658,-0.078149309,-0.003672686
-0.078067534,0.007596507,-0.996919155,-0.037990473,-0.051343519,0.004273832,-0.435862869,0.064536259,-0.0013425,-0.00759658,-0.078149309,-0.003672686
-0.078111328,0.013982332,-0.996846557,-0.043851845,-0.011541015,0.03447473,-0.413533062,0.044142038,-0.012102736,-0.013982788,-0.078198641,-0.00456537
-0.079104409,0.020520698,-0.996655107,-0.004742302,0.005464904,0.011669755,-0.442615449,0.009380173,0.040831372,-0.020522138,-0.079203856,-0.004948603
-0.079264194,0.026903151,-0.996490538,-0.017064206,0.019361353,0.012680113,-0.396119297,0.053356286,0.029352827,-0.026906397,-0.079376222,-0.004866335
-0.081189767,0.036286265,-0.9960379,-0.007295616,-0.000413042,0.019170225,-0.325499535,0.000284316,0.038731683,-0.036294232,-0.081332911,-0.004567788
-0.081189767,0.036286265,-0.9960379,-0.007295616,-0.000413042,0.019170225,-0.325499535,0.000284316,0.038731683,-0.036294232,-0.081332911,-0.004567788
-0.081189767,0.036286265,-0.9960379,-0.007295616,-0.000413042,0.019170225,-0.325499535,0.000284316,0.038731683,-0.036294232,-0.081332911,-0.004567788
-0.081166461,0.042448714,-0.995796204,-0.030161336,-0.016295359,0.012672424,-0.317535579,0.055383965,0.03535096,-0.042461471,-0.081329314,-0.004370298
-0.081166461,0.042448714,-0.995796204,-0.030161336,-0.016295359,0.012672424,-0.317535579,0.055383965,0.03535096,-0.042461471,-0.081329314,-0.004370298
-0.081166461,0.042448714,-0.995796204,-0.030161336,-0.016295359,0.012672424,-0.317535579,0.055383965,0.03535096,-0.042461471,-0.081329314,-0.004370298
-0.081166461,0.042448714,-0.995796204,-0.030161336,-0.016295359,0.012672424,-0.317535579,0.055383965,0.03535096,-0.042461471,-0.081329314,-0.004370298
-0.081166461,0.042448714,-0.995796204,-0.030161336,-0.016295359,0.012672424,-0.317535579,0.055383965,0.03535096,-0.042461471,-0.081329314,-0.004370298
-0.081166461,0.042448714,-0.995796204,-0.030161336,-0.016295359,0.012672424,-0.317535579,0.055383965,0.03535096,-0.042461471,-0.081329314,-0.004370298
-0.081166461,0.042448714,-0.995796204,-0.030161336,-0.016295359,0.012672424,-0.317535579,0.055383965,0.03535096,-0.042461471,-0.081329314,-0.004370298
-0.081166461,0.042448714,-0.995796204,-0.030161336,-0.016295359,0.012672424,-0.317535579,0.055383965,0.03535096,-0.042461471,-0.081329314,-0.004370298
-0.081166461,0.042448714,-0.995796204,-0.030161336,-0.016295359,0.012672424,-0.317535579,0.055383965,0.03535096,-0.042461471,-0.081329314,-0.004370298
-0.080132984,0.048256557,-0.995615363,-0.028295644,-0.000786703,0.035410285,-0.269552439,0.067544751,-0.003341948,-0.048275305,-0.08031276,-0.004509546
-0.080132984,0.048256557,-0.995615363,-0.028295644,-0.000786703,0.035410285,-0.269552439,0.067544751,-0.003341948,-0.048275305,-0.08031276,-0.004509546
-0.080132984,0.048256557,-0.995615363,-0.028295644,-0.000786703,0.035410285,-0.269552439,0.067544751,-0.003341948,-0.048275305,-0.08031276,-0.004509546
-0.080132984,0.048256557,-0.995615363,-0.028295644,-0.000786703,0.035410285,-0.269552439,0.067544751,-0.003341948,-0.048275305,-0.08031276,-0.004509546
-0.080132984,0.048256557,-0.995615363,-0.028295644,-0.000786703,0.035410285,-0.269552439,0.067544751,-0.003341948,-0.048275305,-0.08031276,-0.004509546
-0.080125302,0.053548656,-0.995345414,-0.001585163,0.019464377,0.020980179,-0.229742959,0.014597245,0.022404481,-0.053574281,-0.080326784,-0.004818284
-0.080125302,0.053548656,-0.995345414,-0.001585163,0.019464377,0.020980179,-0.229742959,0.014597245,0.022404481,-0.053574281,-0.080326784,-0.004818284
-0.080125302,0.053548656,-0.995345414,-0.001585163,0.019464377,0.020980179,-0.229742959,0.014597245,0.022404481,-0.053574281,-0.080326784,-0.004818284
-0.080125302,0.053548656,-0.995345414,-0.001585163,0.019464377,0.020980179,-0.229742959,0.014597245,0.022404481,-0.053574281,-0.080326784,-0.004818284
-0.080125302,0.053548656,-0.995345414,-0.001585163,0.019464377,0.020980179,-0.229742959,0.014597245,0.022404481,-0.053574281,-0.080326784,-0.004818284
-0.080125302,0.053548656,-0.995345414,-0.001585163,0.019464377,0.020980179,-0.229742959,0.014597245,0.022404481,-0.053574281,-0.080326784,-0.004818284
-0.080125302,0.053548656,-0.995345414,-0.001585163,0.019464377,0.020980179,-0.229742959,0.014597245,0.022404481,-0.053574281,-0.080326784,-0.004818284
-0.080125302,0.053548656,-0.995345414,-0.001585163,0.019464377,0.020980179,-0.229742959,0.014597245,0.022404481,-0.053574281,-0.080326784,-0.004818284
-0.080125302,0.053548656,-0.995345414,-0.001585163,0.019464377,0.020980179,-0.229742959,0.014597245,0.022404481,-0.053574281,-0.080326784,-0.004818284
-0.080396548,0.05722212,-0.995119095,-0.007493719,0.013914064,0.015459061,-0.193104669,-0.011715742,0.00519162,-0.057253393,-0.080615787,-0.004855968
-0.080396548,0.05722212,-0.995119095,-0.007493719,0.013914064,0.015459061,-0.193104669,-0.011715742,0.00519162,-0.057253393,-0.080615787,-0.004855968