gravityX,gravityY,gravityZ,accelX,accelY,accelZ,rotRateX,rotRatY,rotRateZ,attPitch,attRoll,attYaw
0.016148441,0.247093916,-0.96885699,-0.092335567,-0.014885604,-0.000793278,0.206954107,-0.025242699,0.042869117,-0.249680024,0.016665974,0.002091504
0.016148441,0.247093916,-0.96885699,-0.092335567,-0.014885604,-0.000793278,0.206954107,-0.025242699,0.042869117,-0.249680024,0.016665974,0.002091504
0.016148441,0.247093916,-0.96885699,-0.092335567,-0.014885604,-0.000793278,0.206954107,-0.025242699,0.042869117,-0.249680024,0.016665974,0.002091504
0.015759122,0.239986449,-0.970648348,-0.037365567,-0.053005233,-0.025491178,0.106014371,0.017858589,0.029272616,-0.242351893,0.01623424,0.004458618
0.015759122,0.239986449,-0.970648348,-0.037365567,-0.053005233,-0.025491178,0.106014371,0.017858589,0.029272616,-0.242351893,0.01623424,0.004458618
0.015759122,0.239986449,-0.970648348,-0.037365567,-0.053005233,-0.025491178,0.106014371,0.017858589,0.029272616,-0.242351893,0.01623424,0.004458618
0.015759122,0.239986449,-0.970648348,-0.037365567,-0.053005233,-0.025491178,0.106014371,0.017858589,0.029272616,-0.242351893,0.01623424,0.004458618
0.015759122,0.239986449,-0.970648348,-0.037365567,-0.053005233,-0.025491178,0.106014371,0.017858589,0.029272616,-0.242351893,0.01623424,0.004458618
0.015759122,0.239986449,-0.970648348,-0.037365567,-0.053005233,-0.025491178,0.106014371,0.017858589,0.029272616,-0.242351893,0.01623424,0.004458618
0.015759122,0.239986449,-0.970648348,-0.037365567,-0.053005233,-0.025491178,0.106014371,0.017858589,0.029272616,-0.242351893,0.01623424,0.004458618
0.015759122,0.239986449,-0.970648348,-0.037365567,-0.053005233,-0.025491178,0.106014371,0.017858589,0.029272616,-0.242351893,0.01623424,0.004458618
0.015759122,0.239986449,-0.970648348,-0.037365567,-0.053005233,-0.025491178,0.106014371,0.017858589,0.029272616,-0.242351893,0.01623424,0.004458618
0.015759122,0.239986449,-0.970648348,-0.037365567,-0.053005233,-0.025491178,0.106014371,0.017858589,0.029272616,-0.242351893,0.01623424,0.004458618
0.015759122,0.239986449,-0.970648348,-0.037365567,-0.053005233,-0.025491178,0.106014371,0.017858589,0.029272616,-0.242351893,0.01623424,0.004458618
0.015759122,0.239986449,-0.970648348,-0.037365567,-0.053005233,-0.025491178,0.106014371,0.017858589,0.029272616,-0.242351893,0.01623424,0.004458618
0.015759122,0.239986449,-0.970648348,-0.037365567,-0.053005233,-0.025491178,0.106014371,0.017858589,0.029272616,-0.242351893,0.01623424,0.004458618
0.015759122,0.239986449,-0.970648348,-0.037365567,-0.053005233,-0.025491178,0.106014371,0.017858589,0.029272616,-0.242351893,0.01623424,0.004458618
0.01662557,0.236258045,-0.97154814,0.017798252,-0.053350985,0.030096114,0.12157423,-0.030333828,-0.054802261,-0.238513057,0.017110782,0.003138237
0.01662557,0.236258045,-0.97154814,0.017798252,-0.053350985,0.030096114,0.12157423,-0.030333828,-0.054802261,-0.238513057,0.017110782,0.003138237
0.01662557,0.236258045,-0.97154814,0.017798252,-0.053350985,0.030096114,0.12157423,-0.030333828,-0.054802261,-0.238513057,0.017110782,0.003138237
0.01662557,0.236258045,-0.97154814,0.017798252,-0.053350985,0.030096114,0.12157423,-0.030333828,-0.054802261,-0.238513057,0.017110782,0.003138237
0.01662557,0.236258045,-0.97154814,0.017798252,-0.053350985,0.030096114,0.12157423,-0.030333828,-0.054802261,-0.238513057,0.017110782,0.003138237
0.01662557,0.236258045,-0.97154814,0.017798252,-0.053350985,0.030096114,0.12157423,-0.030333828,-0.054802261,-0.238513057,0.017110782,0.003138237
0.01662557,0.236258045,-0.97154814,0.017798252,-0.053350985,0.030096114,0.12157423,-0.030333828,-0.054802261,-0.238513057,0.017110782,0.003138237
0.01662557,0.236258045,-0.97154814,0.017798252,-0.053350985,0.030096114,0.12157423,-0.030333828,-0.054802261,-0.238513057,0.017110782,0.003138237
0.01662557,0.236258045,-0.97154814,0.017798252,-0.053350985,0.030096114,0.12157423,-0.030333828,-0.054802261,-0.238513057,0.017110782,0.003138237
0.01662557,0.236258045,-0.97154814,0.017798252,-0.053350985,0.030096114,0.12157423,-0.030333828,-0.054802261,-0.238513057,0.017110782,0.003138237
0.01662557,0.236258045,-0.97154814,0.017798252,-0.053350985,0.030096114,0.12157423,-0.030333828,-0.054802261,-0.238513057,0.017110782,0.003138237
0.01662557,0.236258045,-0.97154814,0.017798252,-0.053350985,0.030096114,0.12157423,-0.030333828,-0.054802261,-0.238513057,0.017110782,0.003138237
0.01662557,0.236258045,-0.97154814,0.017798252,-0.053350985,0.030096114,0.12157423,-0.030333828,-0.054802261,-0.238513057,0.017110782,0.003138237
0.01662557,0.236258045,-0.97154814,0.017798252,-0.053350985,0.030096114,0.12157423,-0.030333828,-0.054802261,-0.238513057,0.017110782,0.003138237
0.01662557,0.236258045,-0.97154814,0.017798252,-0.053350985,0.030096114,0.12157423,-0.030333828,-0.054802261,-0.238513057,0.017110782,0.003138237
0.01662557,0.236258045,-0.97154814,0.017798252,-0.053350985,0.030096114,0.12157423,-0.030333828,-0.054802261,-0.238513057,0.017110782,0.003138237
0.015188375,0.234565198,-0.971981704,-0.006002592,-0.055488154,-0.037677109,-0.032268994,0.046194263,0.012711532,-0.236771257,0.015624923,0.002783425
0.015188375,0.234565198,-0.971981704,-0.006002592,-0.055488154,-0.037677109,-0.032268994,0.046194263,0.012711532,-0.236771257,0.015624923,0.002783425
0.015188375,0.234565198,-0.971981704,-0.006002592,-0.055488154,-0.037677109,-0.032268994,0.046194263,0.012711532,-0.236771257,0.015624923,0.002783425
0.015188375,0.234565198,-0.971981704,-0.006002592,-0.055488154,-0.037677109,-0.032268994,0.046194263,0.012711532,-0.236771257,0.015624923,0.002783425
0.015188375,0.234565198,-0.971981704,-0.006002592,-0.055488154,-0.037677109,-0.032268994,0.046194263,0.012711532,-0.236771257,0.015624923,0.002783425
0.015188375,0.234565198,-0.971981704,-0.006002592,-0.055488154,-0.037677109,-0.032268994,0.046194263,0.012711532,-0.236771257,0.015624923,0.002783425
0.015188375,0.234565198,-0.971981704,-0.006002592,-0.055488154,-0.037677109,-0.032268994,0.046194263,0.012711532,-0.236771257,0.015624923,0.002783425
0.015188375,0.234565198,-0.971981704,-0.006002592,-0.055488154,-0.037677109,-0.032268994,0.046194263,0.012711532,-0.236771257,0.015624923,0.002783425
0.015188375,0.234565198,-0.971981704,-0.006002592,-0.055488154,-0.037677109,-0.032268994,0.046194263,0.012711532,-0.236771257,0.015624923,0.002783425
0.015188375,0.234565198,-0.971981704,-0.006002592,-0.055488154,-0.037677109,-0.032268994,0.046194263,0.012711532,-0.236771257,0.015624923,0.002783425
0.015188375,0.234565198,-0.971981704,-0.006002592,-0.055488154,-0.037677109,-0.032268994,0.046194263,0.012711532,-0.236771257,0.015624923,0.002783425
0.015188375,0.234565198,-0.971981704,-0.006002592,-0.055488154,-0.037677109,-0.032268994,0.046194263,0.012711532,-0.236771257,0.015624923,0.002783425
0.015188375,0.234565198,-0.971981704,-0.006002592,-0.055488154,-0.037677109,-0.032268994,0.046194263,0.012711532,-0.236771257,0.015624923,0.002783425
0.015188375,0.234565198,-0.971981704,-0.006002592,-0.055488154,-0.037677109,-0.032268994,0.046194263,0.012711532,-0.236771257,0.015624923,0.002783425
0.015188375,0.234565198,-0.971981704,-0.006002592,-0.055488154,-0.037677109,-0.032268994,0.046194263,0.012711532,-0.236771257,0.015624923,0.002783425
0.015188375,0.234565198,-0.971981704,-0.006002592,-0.055488154,-0.037677109,-0.032268994,0.046194263,0.012711532,-0.236771257,0.015624923,0.002783425
0.015188375,0.234565198,-0.971981704,-0.006002592,-0.055488154,-0.037677109,-0.032268994,0.046194263,0.012711532,-0.236771257,0.015624923,0.002783425
0.015188375,0.234565198,-0.971981704,-0.006002592,-0.055488154,-0.037677109,-0.032268994,0.046194263,0.012711532,-0.236771257,0.015624923,0.002783425
0.015188375,0.234565198,-0.971981704,-0.006002592,-0.055488154,-0.037677109,-0.032268994,0.046194263,0.012711532,-0.236771257,0.015624923,0.002783425
0.015188375,0.234565198,-0.971981704,-0.006002592,-0.055488154,-0.037677109,-0.032268994,0.046194263,0.012711532,-0.236771257,0.015624923,0.002783425
0.028640633,0.202680126,-0.978826106,0.007064918,0.010759726,0.020192623,0.075268053,-0.023407154,-0.006514092,-0.204094084,0.029251841,0.005308737
0.028640633,0.202680126,-0.978826106,0.007064918,0.010759726,0.020192623,0.075268053,-0.023407154,-0.006514092,-0.204094084,0.029251841,0.005308737
0.028640633,0.202680126,-0.978826106,0.007064918,0.010759726,0.020192623,0.075268053,-0.023407154,-0.006514092,-0.204094084,0.029251841,0.005308737
0.028640633,0.202680126,-0.978826106,0.007064918,0.010759726,0.020192623,0.075268053,-0.023407154,-0.006514092,-0.204094084,0.029251841,0.005308737
0.028640633,0.202680126,-0.978826106,0.007064918,0.010759726,0.020192623,0.075268053,-0.023407154,-0.006514092,-0.204094084,0.029251841,0.005308737
0.028640633,0.202680126,-0.978826106,0.007064918,0.010759726,0.020192623,0.075268053,-0.023407154,-0.006514092,-0.204094084,0.029251841,0.005308737
0.028640633,0.202680126,-0.978826106,0.007064918,0.010759726,0.020192623,0.075268053,-0.023407154,-0.006514092,-0.204094084,0.029251841,0.005308737
0.028640633,0.202680126,-0.978826106,0.007064918,0.010759726,0.020192623,0.075268053,-0.023407154,-0.006514092,-0.204094084,0.029251841,0.005308737
0.028640633,0.202680126,-0.978826106,0.007064918,0.010759726,0.020192623,0.075268053,-0.023407154,-0.006514092,-0.204094084,0.029251841,0.005308737
0.028640633,0.202680126,-0.978826106,0.007064918,0.010759726,0.020192623,0.075268053,-0.023407154,-0.006514092,-0.204094084,0.029251841,0.005308737
0.028640633,0.202680126,-0.978826106,0.007064918,0.010759726,0.020192623,0.075268053,-0.023407154,-0.006514092,-0.204094084,0.029251841,0.005308737
0.028640633,0.202680126,-0.978826106,0.007064918,0.010759726,0.020192623,0.075268053,-0.023407154,-0.006514092,-0.204094084,0.029251841,0.005308737
0.028640633,0.202680126,-0.978826106,0.007064918,0.010759726,0.020192623,0.075268053,-0.023407154,-0.006514092,-0.204094084,0.029251841,0.005308737
0.028640633,0.202680126,-0.978826106,0.007064918,0.010759726,0.020192623,0.075268053,-0.023407154,-0.006514092,-0.204094084,0.029251841,0.005308737
0.028640633,0.202680126,-0.978826106,0.007064918,0.010759726,0.020192623,0.075268053,-0.023407154,-0.006514092,-0.204094084,0.029251841,0.005308737
0.028640633,0.202680126,-0.978826106,0.007064918,0.010759726,0.020192623,0.075268053,-0.023407154,-0.006514092,-0.204094084,0.029251841,0.005308737
0.028640633,0.202680126,-0.978826106,0.007064918,0.010759726,0.020192623,0.075268053,-0.023407154,-0.006514092,-0.204094084,0.029251841,0.005308737
0.028640633,0.202680126,-0.978826106,0.007064918,0.010759726,0.020192623,0.075268053,-0.023407154,-0.006514092,-0.204094084,0.029251841,0.005308737
0.03296756,0.175927296,-0.983850956,-0.032967582,0.029959425,0.035471439,0.23354423,-0.019916946,-0.029545428,-0.176847672,0.033496159,0.005518756
0.03296756,0.175927296,-0.983850956,-0.032967582,0.029959425,0.035471439,0.23354423,-0.019916946,-0.029545428,-0.176847672,0.033496159,0.005518756
0.03296756,0.175927296,-0.983850956,-0.032967582,0.029959425,0.035471439,0.23354423,-0.019916946,-0.029545428,-0.176847672,0.033496159,0.005518756
0.03296756,0.175927296,-0.983850956,-0.032967582,0.029959425,0.035471439,0.23354423,-0.019916946,-0.029545428,-0.176847672,0.033496159,0.005518756
0.03296756,0.175927296,-0.983850956,-0.032967582,0.029959425,0.035471439,0.23354423,-0.019916946,-0.029545428,-0.176847672,0.033496159,0.005518756
0.03296756,0.175927296,-0.983850956,-0.032967582,0.029959425,0.035471439,0.23354423,-0.019916946,-0.029545428,-0.176847672,0.033496159,0.005518756
0.03296756,0.175927296,-0.983850956,-0.032967582,0.029959425,0.035471439,0.23354423,-0.019916946,-0.029545428,-0.176847672,0.033496159,0.005518756
0.03296756,0.175927296,-0.983850956,-0.032967582,0.029959425,0.035471439,0.23354423,-0.019916946,-0.029545428,-0.176847672,0.033496159,0.005518756
0.03296756,0.175927296,-0.983850956,-0.032967582,0.029959425,0.035471439,0.23354423,-0.019916946,-0.029545428,-0.176847672,0.033496159,0.005518756
0.03296756,0.175927296,-0.983850956,-0.032967582,0.029959425,0.035471439,0.23354423,-0.019916946,-0.029545428,-0.176847672,0.033496159,0.005518756
0.03296756,0.175927296,-0.983850956,-0.032967582,0.029959425,0.035471439,0.23354423,-0.019916946,-0.029545428,-0.176847672,0.033496159,0.005518756
0.03296756,0.175927296,-0.983850956,-0.032967582,0.029959425,0.035471439,0.23354423,-0.019916946,-0.029545428,-0.176847672,0.033496159,0.005518756
0.03296756,0.175927296,-0.983850956,-0.032967582,0.029959425,0.035471439,0.23354423,-0.019916946,-0.029545428,-0.176847672,0.033496159,0.005518756
0.03296756,0.175927296,-0.983850956,-0.032967582,0.029959425,0.035471439,0.23354423,-0.019916946,-0.029545428,-0.176847672,0.033496159,0.005518756
0.03296756,0.175927296,-0.983850956,-0.032967582,0.029959425,0.035471439,0.23354423,-0.019916946,-0.029545428,-0.176847672,0.033496159,0.005518756
0.03296756,0.175927296,-0.983850956,-0.032967582,0.029959425,0.035471439,0.23354423,-0.019916946,-0.029545428,-0.176847672,0.033496159,0.005518756
0.03296756,0.175927296,-0.983850956,-0.032967582,0.029959425,0.035471439,0.23354423,-0.019916946,-0.029545428,-0.176847672,0.033496159,0.005518756
0.029505225,0.178271294,-0.983538926,-0.013422478,0.056271479,0.001406968,0.276847631,-0.075644419,0.017640194,-0.179229329,0.029990047,0.004468356
0.029505225,0.178271294,-0.983538926,-0.013422478,0.056271479,0.001406968,0.276847631,-0.075644419,0.017640194,-0.179229329,0.029990047,0.004468356
0.029505225,0.178271294,-0.983538926,-0.013422478,0.056271479,0.001406968,0.276847631,-0.075644419,0.017640194,-0.179229329,0.029990047,0.004468356
0.021945475,0.174638674,-0.984387994,-0.037601002,0.051420212,0.035581231,0.627867877,0.070746906,0.023051737,-0.175538793,0.022289829,0.00379433
0.021945475,0.174638674,-0.984387994,-0.037601002,0.051420212,0.035581231,0.627867877,0.070746906,0.023051737,-0.175538793,0.022289829,0.00379433
0.021945475,0.174638674,-0.984387994,-0.037601002,0.051420212,0.035581231,0.627867877,0.070746906,0.023051737,-0.175538793,0.022289829,0.00379433
0.576818645,-0.587003946,-0.568072915,-0.251196563,-0.122925997,0.153949022,4.421276569,0.48469615,-4.37471962,0.627353091,0.793036928,-0.937822065
0.576818645,-0.587003946,-0.568072915,-0.251196563,-0.122925997,0.153949022,4.421276569,0.48469615,-4.37471962,0.627353091,0.793036928,-0.937822065
0.576818645,-0.587003946,-0.568072915,-0.251196563,-0.122925997,0.153949022,4.421276569,0.48469615,-4.37471962,0.627353091,0.793036928,-0.937822065
0.6797508,-0.555461884,-0.478958458,-0.352938652,0.139095724,0.148010194,3.118565083,-0.217562646,-4.343069553,0.588918327,0.956983855,-1.215440795
0.6797508,-0.555461884,-0.478958458,-0.352938652,0.139095724,0.148010194,3.118565083,-0.217562646,-4.343069553,0.588918327,0.956983855,-1.215440795
0.6797508,-0.555461884,-0.478958458,-0.352938652,0.139095724,0.148010194,3.118565083,-0.217562646,-4.343069553,0.588918327,0.956983855,-1.215440795
0.6797508,-0.555461884,-0.478958458,-0.352938652,0.139095724,0.148010194,3.118565083,-0.217562646,-4.343069553,0.588918327,0.956983855,-1.215440795
0.6797508,-0.555461884,-0.478958458,-0.352938652,0.139095724,0.148010194,3.118565083,-0.217562646,-4.343069553,0.588918327,0.956983855,-1.215440795
0.6797508,-0.555461884,-0.478958458,-0.352938652,0.139095724,0.148010194,3.118565083,-0.217562646,-4.343069553,0.588918327,0.956983855,-1.215440795
0.6797508,-0.555461884,-0.478958458,-0.352938652,0.139095724,0.148010194,3.118565083,-0.217562646,-4.343069553,0.588918327,0.956983855,-1.215440795
0.6797508,-0.555461884,-0.478958458,-0.352938652,0.139095724,0.148010194,3.118565083,-0.217562646,-4.343069553,0.588918327,0.956983855,-1.215440795
0.6797508,-0.555461884,-0.478958458,-0.352938652,0.139095724,0.148010194,3.118565083,-0.217562646,-4.343069553,0.588918327,0.956983855,-1.215440795
0.79676795,-0.427103966,-0.427484721,-0.221328974,0.194926471,0.029672503,2.311378241,-1.167317986,-2.78534317,0.441287473,1.078358619,-1.57735259
0.79676795,-0.427103966,-0.427484721,-0.221328974,0.194926471,0.029672503,2.311378241,-1.167317986,-2.78534317,0.441287473,1.078358619,-1.57735259
0.79676795,-0.427103966,-0.427484721,-0.221328974,0.194926471,0.029672503,2.311378241,-1.167317986,-2.78534317,0.441287473,1.078358619,-1.57735259
0.79676795,-0.427103966,-0.427484721,-0.221328974,0.194926471,0.029672503,2.311378241,-1.167317986,-2.78534317,0.441287473,1.078358619,-1.57735259
0.79676795,-0.427103966,-0.427484721,-0.221328974,0.194926471,0.029672503,2.311378241,-1.167317986,-2.78534317,0.441287473,1.078358619,-1.57735259
0.813256025,-0.391986102,-0.430071682,-0.200997829,0.282092601,-0.06054467,2.063206673,-1.172449589,-1.806111336,0.402789489,1.084354011,-1.714565927
0.813256025,-0.391986102,-0.430071682,-0.200997829,0.282092601,-0.06054467,2.063206673,-1.172449589,-1.806111336,0.402789489,1.084354011,-1.714565927
0.813256025,-0.391986102,-0.430071682,-0.200997829,0.282092601,-0.06054467,2.063206673,-1.172449589,-1.806111336,0.402789489,1.084354011,-1.714565927
0.813256025,-0.391986102,-0.430071682,-0.200997829,0.282092601,-0.06054467,2.063206673,-1.172449589,-1.806111336,0.402789489,1.084354011,-1.714565927
0.813256025,-0.391986102,-0.430071682,-0.200997829,0.282092601,-0.06054467,2.063206673,-1.172449589,-1.806111336,0.402789489,1.084354011,-1.714565927
0.815026164,-0.370939642,-0.445125163,-0.04964596,0.155378997,-0.154560983,1.486209869,-1.286941648,-1.249572873,0.380020642,1.070915092,-1.80592971
0.815026164,-0.370939642,-0.445125163,-0.04964596,0.155378997,-0.154560983,1.486209869,-1.286941648,-1.249572873,0.380020642,1.070915092,-1.80592971
0.815026164,-0.370939642,-0.445125163,-0.04964596,0.155378997,-0.154560983,1.486209869,-1.286941648,-1.249572873,0.380020642,1.070915092,-1.80592971
0.8472597,-0.450405031,-0.28157872,-0.013978302,-0.144397289,0.002784491,-0.526453853,-0.154364362,0.246478438,0.467218946,1.249939566,-2.374595815
0.8472597,-0.450405031,-0.28157872,-0.013978302,-0.144397289,0.002784491,-0.526453853,-0.154364362,0.246478438,0.467218946,1.249939566,-2.374595815
0.8472597,-0.450405031,-0.28157872,-0.013978302,-0.144397289,0.002784491,-0.526453853,-0.154364362,0.246478438,0.467218946,1.249939566,-2.374595815
0.8487252,-0.44189629,-0.290505648,0.00372082,-0.097516418,0.058448792,-1.395074248,-0.124110892,0.355828673,0.457711459,1.241011291,-2.333266312
0.8487252,-0.44189629,-0.290505648,0.00372082,-0.097516418,0.058448792,-1.395074248,-0.124110892,0.355828673,0.457711459,1.241011291,-2.333266312
0.8487252,-0.44189629,-0.290505648,0.00372082,-0.097516418,0.058448792,-1.395074248,-0.124110892,0.355828673,0.457711459,1.241011291,-2.333266312
0.8487252,-0.44189629,-0.290505648,0.00372082,-0.097516418,0.058448792,-1.395074248,-0.124110892,0.355828673,0.457711459,1.241011291,-2.333266312
0.8487252,-0.44189629,-0.290505648,0.00372082,-0.097516418,0.058448792,-1.395074248,-0.124110892,0.355828673,0.457711459,1.241011291,-2.333266312
0.8487252,-0.44189629,-0.290505648,0.00372082,-0.097516418,0.058448792,-1.395074248,-0.124110892,0.355828673,0.457711459,1.241011291,-2.333266312
0.841053009,-0.429495931,-0.328882039,-0.014455378,-0.071449399,-0.002585769,-2.658145189,-0.151893392,0.315837801,0.443934516,1.198041292,-2.246107865
0.841053009,-0.429495931,-0.328882039,-0.014455378,-0.071449399,-0.002585769,-2.658145189,-0.151893392,0.315837801,0.443934516,1.198041292,-2.246107865
0.826695383,-0.365533262,-0.427738637,-0.009603977,0.074701309,0.15938139,-2.69214344,-0.276643693,0.290992409,0.374205654,1.093319652,-2.016304487
0.826695383,-0.365533262,-0.427738637,-0.009603977,0.074701309,0.15938139,-2.69214344,-0.276643693,0.290992409,0.374205654,1.093319652,-2.016304487
0.826695383,-0.365533262,-0.427738637,-0.009603977,0.074701309,0.15938139,-2.69214344,-0.276643693,0.290992409,0.374205654,1.093319652,-2.016304487
0.826695383,-0.365533262,-0.427738637,-0.009603977,0.074701309,0.15938139,-2.69214344,-0.276643693,0.290992409,0.374205654,1.093319652,-2.016304487
0.826695383,-0.365533262,-0.427738637,-0.009603977,0.074701309,0.15938139,-2.69214344,-0.276643693,0.290992409,0.374205654,1.093319652,-2.016304487
0.817999721,-0.320693016,-0.477527857,0.027686715,-0.080582082,-0.019619644,-2.937345743,-0.246950775,0.131668016,0.326461056,1.042392331,-1.903944727
0.817999721,-0.320693016,-0.477527857,0.027686715,-0.080582082,-0.019619644,-2.937345743,-0.246950775,0.131668016,0.326461056,1.042392331,-1.903944727
0.811255276,-0.278031588,-0.514357269,-0.014381886,0.087755054,0.019452691,-2.246923923,-0.224212468,0.220121071,0.2817443,1.005732404,-1.807960836
0.811255276,-0.278031588,-0.514357269,-0.014381886,0.087755054,0.019452691,-2.246923923,-0.224212468,0.220121071,0.2817443,1.005732404,-1.807960836
0.811255276,-0.278031588,-0.514357269,-0.014381886,0.087755054,0.019452691,-2.246923923,-0.224212468,0.220121071,0.2817443,1.005732404,-1.807960836
0.811255276,-0.278031588,-0.514357269,-0.014381886,0.087755054,0.019452691,-2.246923923,-0.224212468,0.220121071,0.2817443,1.005732404,-1.807960836
0.811255276,-0.278031588,-0.514357269,-0.014381886,0.087755054,0.019452691,-2.246923923,-0.224212468,0.220121071,0.2817443,1.005732404,-1.807960836
0.811255276,-0.278031588,-0.514357269,-0.014381886,0.087755054,0.019452691,-2.246923923,-0.224212468,0.220121071,0.2817443,1.005732404,-1.807960836
0.811255276,-0.278031588,-0.514357269,-0.014381886,0.087755054,0.019452691,-2.246923923,-0.224212468,0.220121071,0.2817443,1.005732404,-1.807960836
0.811255276,-0.278031588,-0.514357269,-0.014381886,0.087755054,0.019452691,-2.246923923,-0.224212468,0.220121071,0.2817443,1.005732404,-1.807960836
0.811255276,-0.278031588,-0.514357269,-0.014381886,0.087755054,0.019452691,-2.246923923,-0.224212468,0.220121071,0.2817443,1.005732404,-1.807960836
0.811255276,-0.278031588,-0.514357269,-0.014381886,0.087755054,0.019452691,-2.246923923,-0.224212468,0.220121071,0.2817443,1.005732404,-1.807960836
0.811255276,-0.278031588,-0.514357269,-0.014381886,0.087755054,0.019452691,-2.246923923,-0.224212468,0.220121071,0.2817443,1.005732404,-1.807960836
0.806032181,-0.232146308,-0.544445097,0.014019132,-0.1249699,0.098139763,-2.800416946,0.147422627,0.309122324,0.234283689,0.976728502,-1.706348991
0.806032181,-0.232146308,-0.544445097,0.014019132,-0.1249699,0.098139763,-2.800416946,0.147422627,0.309122324,0.234283689,0.976728502,-1.706348991
0.806032181,-0.232146308,-0.544445097,0.014019132,-0.1249699,0.098139763,-2.800416946,0.147422627,0.309122324,0.234283689,0.976728502,-1.706348991
0.806032181,-0.232146308,-0.544445097,0.014019132,-0.1249699,0.098139763,-2.800416946,0.147422627,0.309122324,0.234283689,0.976728502,-1.706348991
0.806032181,-0.232146308,-0.544445097,0.014019132,-0.1249699,0.098139763,-2.800416946,0.147422627,0.309122324,0.234283689,0.976728502,-1.706348991
0.806032181,-0.232146308,-0.544445097,0.014019132,-0.1249699,0.098139763,-2.800416946,0.147422627,0.309122324,0.234283689,0.976728502,-1.706348991
0.806032181,-0.232146308,-0.544445097,0.014019132,-0.1249699,0.098139763,-2.800416946,0.147422627,0.309122324,0.234283689,0.976728502,-1.706348991
0.806032181,-0.232146308,-0.544445097,0.014019132,-0.1249699,0.098139763,-2.800416946,0.147422627,0.309122324,0.234283689,0.976728502,-1.706348991
0.806032181,-0.232146308,-0.544445097,0.014019132,-0.1249699,0.098139763,-2.800416946,0.147422627,0.309122324,0.234283689,0.976728502,-1.706348991
0.80648303,-0.19057858,-0.559700906,0.005801201,0.089749008,-0.045708001,-2.15873909,0.133566335,0.341203511,0.191751501,0.964107139,-1.615935122
0.80648303,-0.19057858,-0.559700906,0.005801201,0.089749008,-0.045708001,-2.15873909,0.133566335,0.341203511,0.191751501,0.964107139,-1.615935122
0.80648303,-0.19057858,-0.559700906,0.005801201,0.089749008,-0.045708001,-2.15873909,0.133566335,0.341203511,0.191751501,0.964107139,-1.615935122
0.806129515,-0.155352667,-0.570982456,-0.040155768,-0.083904713,0.034390688,-2.305496693,0.094288953,0.446869493,0.155984452,0.954520807,-1.535968474
0.806129515,-0.155352667,-0.570982456,-0.040155768,-0.083904713,0.034390688,-2.305496693,0.094288953,0.446869493,0.155984452,0.954520807,-1.535968474
0.806129515,-0.155352667,-0.570982456,-0.040155768,-0.083904713,0.034390688,-2.305496693,0.094288953,0.446869493,0.155984452,0.954520807,-1.535968474
0.806129515,-0.155352667,-0.570982456,-0.040155768,-0.083904713,0.034390688,-2.305496693,0.094288953,0.446869493,0.155984452,0.954520807,-1.535968474
0.806129515,-0.155352667,-0.570982456,-0.040155768,-0.083904713,0.034390688,-2.305496693,0.094288953,0.446869493,0.155984452,0.954520807,-1.535968474
0.806129515,-0.155352667,-0.570982456,-0.040155768,-0.083904713,0.034390688,-2.305496693,0.094288953,0.446869493,0.155984452,0.954520807,-1.535968474
0.806129515,-0.155352667,-0.570982456,-0.040155768,-0.083904713,0.034390688,-2.305496693,0.094288953,0.446869493,0.155984452,0.954520807,-1.535968474
0.806129515,-0.155352667,-0.570982456,-0.040155768,-0.083904713,0.034390688,-2.305496693,0.094288953,0.446869493,0.155984452,0.954520807,-1.535968474
0.806129515,-0.155352667,-0.570982456,-0.040155768,-0.083904713,0.034390688,-2.305496693,0.094288953,0.446869493,0.155984452,0.954520807,-1.535968474
0.805948079,-0.12421672,-0.578807354,-0.031582355,0.130381644,0.040674329,-1.464006543,-0.054463796,0.249683067,0.124538402,0.947979854,-1.462650347
0.805948079,-0.12421672,-0.578807354,-0.031582355,0.130381644,0.040674329,-1.464006543,-0.054463796,0.249683067,0.124538402,0.947979854,-1.462650347
0.805948079,-0.12421672,-0.578807354,-0.031582355,0.130381644,0.040674329,-1.464006543,-0.054463796,0.249683067,0.124538402,0.947979854,-1.462650347
0.801158547,-0.094864003,-0.590885818,0.005555809,-0.016295999,0.030947924,-1.506479263,-0.139303416,-0.016983297,0.095006868,0.935317964,-1.413504343
0.801158547,-0.094864003,-0.590885818,0.005555809,-0.016295999,0.030947924,-1.506479263,-0.139303416,-0.016983297,0.095006868,0.935317964,-1.413504343
0.801158547,-0.094864003,-0.590885818,0.005555809,-0.016295999,0.030947924,-1.506479263,-0.139303416,-0.016983297,0.095006868,0.935317964,-1.413504343
0.801158547,-0.094864003,-0.590885818,0.005555809,-0.016295999,0.030947924,-1.506479263,-0.139303416,-0.016983297,0.095006868,0.935317964,-1.413504343
0.801158547,-0.094864003,-0.590885818,0.005555809,-0.016295999,0.030947924,-1.506479263,-0.139303416,-0.016983297,0.095006868,0.935317964,-1.413504343
0.801158547,-0.094864003,-0.590885818,0.005555809,-0.016295999,0.030947924,-1.506479263,-0.139303416,-0.016983297,0.095006868,0.935317964,-1.413504343
0.801158547,-0.094864003,-0.590885818,0.005555809,-0.016295999,0.030947924,-1.506479263,-0.139303416,-0.016983297,0.095006868,0.935317964,-1.413504343
0.801158547,-0.094864003,-0.590885818,0.005555809,-0.016295999,0.030947924,-1.506479263,-0.139303416,-0.016983297,0.095006868,0.935317964,-1.413504343
0.801158547,-0.094864003,-0.590885818,0.005555809,-0.016295999,0.030947924,-1.506479263,-0.139303416,-0.016983297,0.095006868,0.935317964,-1.413504343
0.799657226,-0.060159832,-0.597435594,-0.004707456,0.016580939,-0.111000776,-1.46229732,-0.063315816,-0.031250704,0.06019618,0.929144434,-1.365314428
0.799657226,-0.060159832,-0.597435594,-0.004707456,0.016580939,-0.111000776,-1.46229732,-0.063315816,-0.031250704,0.06019618,0.929144434,-1.365314428
0.799657226,-0.060159832,-0.597435594,-0.004707456,0.016580939,-0.111000776,-1.46229732,-0.063315816,-0.031250704,0.06019618,0.929144434,-1.365314428
0.799657226,-0.060159832,-0.597435594,-0.004707456,0.016580939,-0.111000776,-1.46229732,-0.063315816,-0.031250704,0.06019618,0.929144434,-1.365314428
0.799657226,-0.060159832,-0.597435594,-0.004707456,0.016580939,-0.111000776,-1.46229732,-0.063315816,-0.031250704,0.06019618,0.929144434,-1.365314428
0.799657226,-0.060159832,-0.597435594,-0.004707456,0.016580939,-0.111000776,-1.46229732,-0.063315816,-0.031250704,0.06019618,0.929144434,-1.365314428
0.799657226,-0.060159832,-0.597435594,-0.004707456,0.016580939,-0.111000776,-1.46229732,-0.063315816,-0.031250704,0.06019618,0.929144434,-1.365314428
0.799657226,-0.060159832,-0.597435594,-0.004707456,0.016580939,-0.111000776,-1.46229732,-0.063315816,-0.031250704,0.06019618,0.929144434,-1.365314428
0.799657226,-0.060159832,-0.597435594,-0.004707456,0.016580939,-0.111000776,-1.46229732,-0.063315816,-0.031250704,0.06019618,0.929144434,-1.365314428
0.797969103,-0.025032111,-0.602178454,-0.011640668,0.058967739,0.047947288,-1.674395084,-0.152928263,-0.002885535,0.025034725,0.92433299,-1.32037722
0.797969103,-0.025032111,-0.602178454,-0.011640668,0.058967739,0.047947288,-1.674395084,-0.152928263,-0.002885535,0.025034725,0.92433299,-1.32037722
0.797969103,-0.025032111,-0.602178454,-0.011640668,0.058967739,0.047947288,-1.674395084,-0.152928263,-0.002885535,0.025034725,0.92433299,-1.32037722
0.797969103,-0.025032111,-0.602178454,-0.011640668,0.058967739,0.047947288,-1.674395084,-0.152928263,-0.002885535,0.025034725,0.92433299,-1.32037722
0.797969103,-0.025032111,-0.602178454,-0.011640668,0.058967739,0.047947288,-1.674395084,-0.152928263,-0.002885535,0.025034725,0.92433299,-1.32037722
0.797969103,-0.025032111,-0.602178454,-0.011640668,0.058967739,0.047947288,-1.674395084,-0.152928263,-0.002885535,0.025034725,0.92433299,-1.32037722
0.797969103,-0.025032111,-0.602178454,-0.011640668,0.058967739,0.047947288,-1.674395084,-0.152928263,-0.002885535,0.025034725,0.92433299,-1.32037722
0.797969103,-0.025032111,-0.602178454,-0.011640668,0.058967739,0.047947288,-1.674395084,-0.152928263,-0.002885535,0.025034725,0.92433299,-1.32037722
0.794737756,0.027236177,-0.6063416,-0.059694111,-0.115752488,0.022523761,-2.777912378,-0.109068021,0.011336223,-0.027239546,0.919061433,-1.250804211
0.794737756,0.027236177,-0.6063416,-0.059694111,-0.115752488,0.022523761,-2.777912378,-0.109068021,0.011336223,-0.027239546,0.919061433,-1.250804211
0.794737756,0.027236177,-0.6063416,-0.059694111,-0.115752488,0.022523761,-2.777912378,-0.109068021,0.011336223,-0.027239546,0.919061433,-1.250804211
0.794737756,0.027236177,-0.6063416,-0.059694111,-0.115752488,0.022523761,-2.777912378,-0.109068021,0.011336223,-0.027239546,0.919061433,-1.250804211
0.794737756,0.027236177,-0.6063416,-0.059694111,-0.115752488,0.022523761,-2.777912378,-0.109068021,0.011336223,-0.027239546,0.919061433,-1.250804211
0.794737756,0.027236177,-0.6063416,-0.059694111,-0.115752488,0.022523761,-2.777912378,-0.109068021,0.011336223,-0.027239546,0.919061433,-1.250804211
0.794737756,0.027236177,-0.6063416,-0.059694111,-0.115752488,0.022523761,-2.777912378,-0.109068021,0.011336223,-0.027239546,0.919061433,-1.250804211
0.794737756,0.027236177,-0.6063416,-0.059694111,-0.115752488,0.022523761,-2.777912378,-0.109068021,0.011336223,-0.027239546,0.919061433,-1.250804211
0.794737756,0.027236177,-0.6063416,-0.059694111,-0.115752488,0.022523761,-2.777912378,-0.109068021,0.011336223,-0.027239546,0.919061433,-1.250804211
0.792172909,0.09825965,-0.602334917,0.004378915,-0.092400581,-0.014197826,-2.822663546,-0.14326933,-0.025007561,-0.098418454,0.920699082,-1.159336406
0.792172909,0.09825965,-0.602334917,0.004378915,-0.092400581,-0.014197826,-2.822663546,-0.14326933,-0.025007561,-0.098418454,0.920699082,-1.159336406
0.792172909,0.09825965,-0.602334917,0.004378915,-0.092400581,-0.014197826,-2.822663546,-0.14326933,-0.025007561,-0.098418454,0.920699082,-1.159336406
0.792172909,0.09825965,-0.602334917,0.004378915,-0.092400581,-0.014197826,-2.822663546,-0.14326933,-0.025007561,-0.098418454,0.920699082,-1.159336406
0.792172909,0.09825965,-0.602334917,0.004378915,-0.092400581,-0.014197826,-2.822663546,-0.14326933,-0.025007561,-0.098418454,0.920699082,-1.159336406
0.792172909,0.09825965,-0.602334917,0.004378915,-0.092400581,-0.014197826,-2.822663546,-0.14326933,-0.025007561,-0.098418454,0.920699082,-1.159336406
0.792172909,0.09825965,-0.602334917,0.004378915,-0.092400581,-0.014197826,-2.822663546,-0.14326933,-0.025007561,-0.098418454,0.920699082,-1.159336406
0.792172909,0.09825965,-0.602334917,0.004378915,-0.092400581,-0.014197826,-2.822663546,-0.14326933,-0.025007561,-0.098418454,0.920699082,-1.159336406
0.792172909,0.09825965,-0.602334917,0.004378915,-0.092400581,-0.014197826,-2.822663546,-0.14326933,-0.025007561,-0.098418454,0.920699082,-1.159336406
0.787861466,0.149881855,-0.597335756,-0.017341018,-0.000758201,0.091963291,-1.401571751,-0.024945866,0.187237859,-0.15044877,0.922084593,-1.085099407
0.787861466,0.149881855,-0.597335756,-0.017341018,-0.000758201,0.091963291,-1.401571751,-0.024945866,0.187237859,-0.15044877,0.922084593,-1.085099407
0.787861466,0.149881855,-0.597335756,-0.017341018,-0.000758201,0.091963291,-1.401571751,-0.024945866,0.187237859,-0.15044877,0.922084593,-1.085099407
0.787861466,0.149881855,-0.597335756,-0.017341018,-0.000758201,0.091963291,-1.401571751,-0.024945866,0.187237859,-0.15044877,0.922084593,-1.085099407
0.787861466,0.149881855,-0.597335756,-0.017341018,-0.000758201,0.091963291,-1.401571751,-0.024945866,0.187237859,-0.15044877,0.922084593,-1.085099407
0.787861466,0.149881855,-0.597335756,-0.017341018,-0.000758201,0.091963291,-1.401571751,-0.024945866,0.187237859,-0.15044877,0.922084593,-1.085099407
0.79270637,0.157711267,-0.588849723,0.03286767,-0.277111799,-0.158832312,-1.529954791,0.496232599,0.650942326,-0.158372488,0.931896865,-1.041275759
0.79270637,0.157711267,-0.588849723,0.03286767,-0.277111799,-0.158832312,-1.529954791,0.496232599,0.650942326,-0.158372488,0.931896865,-1.041275759
0.79270637,0.157711267,-0.588849723,0.03286767,-0.277111799,-0.158832312,-1.529954791,0.496232599,0.650942326,-0.158372488,0.931896865,-1.041275759
0.79270637,0.157711267,-0.588849723,0.03286767,-0.277111799,-0.158832312,-1.529954791,0.496232599,0.650942326,-0.158372488,0.931896865,-1.041275759
0.79270637,0.157711267,-0.588849723,0.03286767,-0.277111799,-0.158832312,-1.529954791,0.496232599,0.650942326,-0.158372488,0.931896865,-1.041275759
0.79270637,0.157711267,-0.588849723,0.03286767,-0.277111799,-0.158832312,-1.529954791,0.496232599,0.650942326,-0.158372488,0.931896865,-1.041275759
0.79270637,0.157711267,-0.588849723,0.03286767,-0.277111799,-0.158832312,-1.529954791,0.496232599,0.650942326,-0.158372488,0.931896865,-1.041275759
0.79270637,0.157711267,-0.588849723,0.03286767,-0.277111799,-0.158832312,-1.529954791,0.496232599,0.650942326,-0.158372488,0.931896865,-1.041275759
0.79270637,0.157711267,-0.588849723,0.03286767,-0.277111799,-0.158832312,-1.529954791,0.496232599,0.650942326,-0.158372488,0.931896865,-1.041275759
0.809187472,0.170960069,-0.562128663,0.067961097,0.252302855,0.00269413,-0.710011721,0.209710181,0.507481992,-0.171804008,0.963647826,-0.98570879
0.809187472,0.170960069,-0.562128663,0.067961097,0.252302855,0.00269413,-0.710011721,0.209710181,0.507481992,-0.171804008,0.963647826,-0.98570879
0.809187472,0.170960069,-0.562128663,0.067961097,0.252302855,0.00269413,-0.710011721,0.209710181,0.507481992,-0.171804008,0.963647826,-0.98570879
0.809187472,0.170960069,-0.562128663,0.067961097,0.252302855,0.00269413,-0.710011721,0.209710181,0.507481992,-0.171804008,0.963647826,-0.98570879
0.809187472,0.170960069,-0.562128663,0.067961097,0.252302855,0.00269413,-0.710011721,0.209710181,0.507481992,-0.171804008,0.963647826,-0.98570879
0.809187472,0.170960069,-0.562128663,0.067961097,0.252302855,0.00269413,-0.710011721,0.209710181,0.507481992,-0.171804008,0.963647826,-0.98570879
0.809187472,0.170960069,-0.562128663,0.067961097,0.252302855,0.00269413,-0.710011721,0.209710181,0.507481992,-0.171804008,0.963647826,-0.98570879
0.809187472,0.170960069,-0.562128663,0.067961097,0.252302855,0.00269413,-0.710011721,0.209710181,0.507481992,-0.171804008,0.963647826,-0.98570879
0.809187472,0.170960069,-0.562128663,0.067961097,0.252302855,0.00269413,-0.710011721,0.209710181,0.507481992,-0.171804008,0.963647826,-0.98570879
0.816019058,0.177008361,-0.550255418,-0.11713922,-0.048667371,0.039389372,-1.096794605,0.242900133,0.186245248,-0.177945983,0.977516133,-0.951305235
0.816019058,0.177008361,-0.550255418,-0.11713922,-0.048667371,0.039389372,-1.096794605,0.242900133,0.186245248,-0.177945983,0.977516133,-0.951305235
0.816019058,0.177008361,-0.550255418,-0.11713922,-0.048667371,0.039389372,-1.096794605,0.242900133,0.186245248,-0.177945983,0.977516133,-0.951305235
0.816019058,0.177008361,-0.550255418,-0.11713922,-0.048667371,0.039389372,-1.096794605,0.242900133,0.186245248,-0.177945983,0.977516133,-0.951305235
0.816019058,0.177008361,-0.550255418,-0.11713922,-0.048667371,0.039389372,-1.096794605,0.242900133,0.186245248,-0.177945983,0.977516133,-0.951305235
0.816019058,0.177008361,-0.550255418,-0.11713922,-0.048667371,0.039389372,-1.096794605,0.242900133,0.186245248,-0.177945983,0.977516133,-0.951305235
0.822679102,0.196049422,-0.533632815,-0.02101624,-0.025563747,-0.063155651,-1.066853642,0.274376422,0.066614017,-0.197327525,0.995369011,-0.910781242
0.822679102,0.196049422,-0.533632815,-0.02101624,-0.025563747,-0.063155651,-1.066853642,0.274376422,0.066614017,-0.197327525,0.995369011,-0.910781242
0.822679102,0.196049422,-0.533632815,-0.02101624,-0.025563747,-0.063155651,-1.066853642,0.274376422,0.066614017,-0.197327525,0.995369011,-0.910781242
0.822679102,0.196049422,-0.533632815,-0.02101624,-0.025563747,-0.063155651,-1.066853642,0.274376422,0.066614017,-0.197327525,0.995369011,-0.910781242
0.822679102,0.196049422,-0.533632815,-0.02101624,-0.025563747,-0.063155651,-1.066853642,0.274376422,0.066614017,-0.197327525,0.995369011,-0.910781242
0.822679102,0.196049422,-0.533632815,-0.02101624,-0.025563747,-0.063155651,-1.066853642,0.274376422,0.066614017,-0.197327525,0.995369011,-0.910781242
0.822679102,0.196049422,-0.533632815,-0.02101624,-0.025563747,-0.063155651,-1.066853642,0.274376422,0.066614017,-0.197327525,0.995369011,-0.910781242
0.822679102,0.196049422,-0.533632815,-0.02101624,-0.025563747,-0.063155651,-1.066853642,0.274376422,0.066614017,-0.197327525,0.995369011,-0.910781242
0.822679102,0.196049422,-0.533632815,-0.02101624,-0.025563747,-0.063155651,-1.066853642,0.274376422,0.066614017,-0.197327525,0.995369011,-0.910781242
0.827031374,0.218238384,-0.518065035,-0.035225928,0.069510922,0.025814354,-1.109414697,0.191987917,-0.089884453,-0.220008978,1.011180003,-0.876997973
0.827031374,0.218238384,-0.518065035,-0.035225928,0.069510922,0.025814354,-1.109414697,0.191987917,-0.089884453,-0.220008978,1.011180003,-0.876997973
0.827031374,0.218238384,-0.518065035,-0.035225928,0.069510922,0.025814354,-1.109414697,0.191987917,-0.089884453,-0.220008978,1.011180003,-0.876997973
0.827031374,0.218238384,-0.518065035,-0.035225928,0.069510922,0.025814354,-1.109414697,0.191987917,-0.089884453,-0.220008978,1.011180003,-0.876997973
0.827031374,0.218238384,-0.518065035,-0.035225928,0.069510922,0.025814354,-1.109414697,0.191987917,-0.089884453,-0.220008978,1.011180003,-0.876997973
0.827031374,0.218238384,-0.518065035,-0.035225928,0.069510922,0.025814354,-1.109414697,0.191987917,-0.089884453,-0.220008978,1.011180003,-0.876997973
0.827031374,0.218238384,-0.518065035,-0.035225928,0.069510922,0.025814354,-1.109414697,0.191987917,-0.089884453,-0.220008978,1.011180003,-0.876997973
0.827031374,0.218238384,-0.518065035,-0.035225928,0.069510922,0.025814354,-1.109414697,0.191987917,-0.089884453,-0.220008978,1.011180003,-0.876997973
0.827031374,0.218238384,-0.518065035,-0.035225928,0.069510922,0.025814354,-1.109414697,0.191987917,-0.089884453,-0.220008978,1.011180003,-0.876997973
0.827031374,0.218238384,-0.518065035,-0.035225928,0.069510922,0.025814354,-1.109414697,0.191987917,-0.089884453,-0.220008978,1.011180003,-0.876997973
0.827031374,0.218238384,-0.518065035,-0.035225928,0.069510922,0.025814354,-1.109414697,0.191987917,-0.089884453,-0.220008978,1.011180003,-0.876997973
0.829339802,0.24997133,-0.499709994,0.000292182,-0.061129645,-0.012316108,-1.639590621,0.2011026,-0.190708801,-0.252650647,1.028511629,-0.832781244
0.829339802,0.24997133,-0.499709994,0.000292182,-0.061129645,-0.012316108,-1.639590621,0.2011026,-0.190708801,-0.252650647,1.028511629,-0.832781244
0.829339802,0.24997133,-0.499709994,0.000292182,-0.061129645,-0.012316108,-1.639590621,0.2011026,-0.190708801,-0.252650647,1.028511629,-0.832781244
0.829339802,0.24997133,-0.499709994,0.000292182,-0.061129645,-0.012316108,-1.639590621,0.2011026,-0.190708801,-0.252650647,1.028511629,-0.832781244
0.829339802,0.24997133,-0.499709994,0.000292182,-0.061129645,-0.012316108,-1.639590621,0.2011026,-0.190708801,-0.252650647,1.028511629,-0.832781244
0.829339802,0.24997133,-0.499709994,0.000292182,-0.061129645,-0.012316108,-1.639590621,0.2011026,-0.190708801,-0.252650647,1.028511629,-0.832781244
0.829339802,0.24997133,-0.499709994,0.000292182,-0.061129645,-0.012316108,-1.639590621,0.2011026,-0.190708801,-0.252650647,1.028511629,-0.832781244
0.830049038,0.287003547,-0.4781712,-0.006184697,0.067304403,-0.007380903,-1.258756638,0.107666999,-0.259872586,-0.291097317,1.048153921,-0.78453383
0.830049038,0.287003547,-0.4781712,-0.006184697,0.067304403,-0.007380903,-1.258756638,0.107666999,-0.259872586,-0.291097317,1.048153921,-0.78453383
0.830049038,0.287003547,-0.4781712,-0.006184697,0.067304403,-0.007380903,-1.258756638,0.107666999,-0.259872586,-0.291097317,1.048153921,-0.78453383
0.830049038,0.287003547,-0.4781712,-0.006184697,0.067304403,-0.007380903,-1.258756638,0.107666999,-0.259872586,-0.291097317,1.048153921,-0.78453383
0.830049038,0.287003547,-0.4781712,-0.006184697,0.067304403,-0.007380903,-1.258756638,0.107666999,-0.259872586,-0.291097317,1.048153921,-0.78453383
0.830049038,0.287003547,-0.4781712,-0.006184697,0.067304403,-0.007380903,-1.258756638,0.107666999,-0.259872586,-0.291097317,1.048153921,-0.78453383
0.830049038,0.287003547,-0.4781712,-0.006184697,0.067304403,-0.007380903,-1.258756638,0.107666999,-0.259872586,-0.291097317,1.048153921,-0.78453383
0.830049038,0.287003547,-0.4781712,-0.006184697,0.067304403,-0.007380903,-1.258756638,0.107666999,-0.259872586,-0.291097317,1.048153921,-0.78453383
0.825679183,0.322994977,-0.462523878,-0.070616543,0.116227984,0.055234075,-1.249238849,-0.085839637,-0.448548883,-0.328892394,1.060175697,-0.744551052
0.825679183,0.322994977,-0.462523878,-0.070616543,0.116227984,0.055234075,-1.249238849,-0.085839637,-0.448548883,-0.328892394,1.060175697,-0.744551052
0.825679183,0.322994977,-0.462523878,-0.070616543,0.116227984,0.055234075,-1.249238849,-0.085839637,-0.448548883,-0.328892394,1.060175697,-0.744551052
0.825679183,0.322994977,-0.462523878,-0.070616543,0.116227984,0.055234075,-1.249238849,-0.085839637,-0.448548883,-0.328892394,1.060175697,-0.744551052
0.793638468,0.362498909,-0.488602877,-0.059831083,0.169207513,0.072737873,0.365005016,-1.099762797,0.367051393,-0.370947772,1.018949463,-0.729237384
0.793638468,0.362498909,-0.488602877,-0.059831083,0.169207513,0.072737873,0.365005016,-1.099762797,0.367051393,-0.370947772,1.018949463,-0.729237384
0.793638468,0.362498909,-0.488602877,-0.059831083,0.169207513,0.072737873,0.365005016,-1.099762797,0.367051393,-0.370947772,1.018949463,-0.729237384
0.76918596,0.284472406,-0.572213829,-0.051858008,0.116283327,0.10950464,0.78037715,-1.00165236,1.166379809,-0.288456052,0.931196961,-0.731864566
0.76918596,0.284472406,-0.572213829,-0.051858008,0.116283327,0.10950464,0.78037715,-1.00165236,1.166379809,-0.288456052,0.931196961,-0.731864566
0.76918596,0.284472406,-0.572213829,-0.051858008,0.116283327,0.10950464,0.78037715,-1.00165236,1.166379809,-0.288456052,0.931196961,-0.731864566
0.76918596,0.284472406,-0.572213829,-0.051858008,0.116283327,0.10950464,0.78037715,-1.00165236,1.166379809,-0.288456052,0.931196961,-0.731864566
0.758003592,0.227016211,-0.611468911,-0.033794105,-0.104809463,-0.047269821,0.639841139,-0.940801561,1.275840759,-0.229012796,0.891993392,-0.723493096
0.758003592,0.227016211,-0.611468911,-0.033794105,-0.104809463,-0.047269821,0.639841139,-0.940801561,1.275840759,-0.229012796,0.891993392,-0.723493096
0.758003592,0.227016211,-0.611468911,-0.033794105,-0.104809463,-0.047269821,0.639841139,-0.940801561,1.275840759,-0.229012796,0.891993392,-0.723493096
0.745720983,0.171778858,-0.643733084,-0.029873252,-0.032070071,0.067742825,0.971967995,-0.814864933,1.087003231,-0.172635086,0.858668151,-0.717795725
0.745720983,0.171778858,-0.643733084,-0.029873252,-0.032070071,0.067742825,0.971967995,-0.814864933,1.087003231,-0.172635086,0.858668151,-0.717795725
0.745720983,0.171778858,-0.643733084,-0.029873252,-0.032070071,0.067742825,0.971967995,-0.814864933,1.087003231,-0.172635086,0.858668151,-0.717795725
0.745720983,0.171778858,-0.643733084,-0.029873252,-0.032070071,0.067742825,0.971967995,-0.814864933,1.087003231,-0.172635086,0.858668151,-0.717795725
0.745720983,0.171778858,-0.643733084,-0.029873252,-0.032070071,0.067742825,0.971967995,-0.814864933,1.087003231,-0.172635086,0.858668151,-0.717795725
0.745720983,0.171778858,-0.643733084,-0.029873252,-0.032070071,0.067742825,0.971967995,-0.814864933,1.087003231,-0.172635086,0.858668151,-0.717795725
0.727094769,0.110411257,-0.677600682,-0.069505036,0.060700387,0.053438604,0.527327955,-1.132261992,1.477233171,-0.11063683,0.820618335,-0.709715912
0.727094769,0.110411257,-0.677600682,-0.069505036,0.060700387,0.053438604,0.527327955,-1.132261992,1.477233171,-0.11063683,0.820618335,-0.709715912
0.727094769,0.110411257,-0.677600682,-0.069505036,0.060700387,0.053438604,0.527327955,-1.132261992,1.477233171,-0.11063683,0.820618335,-0.709715912
0.69911927,0.060779624,-0.712417185,-0.085413635,0.002574623,0.119734108,0.295870066,-1.157245398,1.193124175,-0.060817109,0.7759776,-0.678102111
0.69911927,0.060779624,-0.712417185,-0.085413635,0.002574623,0.119734108,0.295870066,-1.157245398,1.193124175,-0.060817109,0.7759776,-0.678102111
0.69911927,0.060779624,-0.712417185,-0.085413635,0.002574623,0.119734108,0.295870066,-1.157245398,1.193124175,-0.060817109,0.7759776,-0.678102111
0.69911927,0.060779624,-0.712417185,-0.085413635,0.002574623,0.119734108,0.295870066,-1.157245398,1.193124175,-0.060817109,0.7759776,-0.678102111
0.69911927,0.060779624,-0.712417185,-0.085413635,0.002574623,0.119734108,0.295870066,-1.157245398,1.193124175,-0.060817109,0.7759776,-0.678102111
0.69911927,0.060779624,-0.712417185,-0.085413635,0.002574623,0.119734108,0.295870066,-1.157245398,1.193124175,-0.060817109,0.7759776,-0.678102111
0.69911927,0.060779624,-0.712417185,-0.085413635,0.002574623,0.119734108,0.295870066,-1.157245398,1.193124175,-0.060817109,0.7759776,-0.678102111
0.69911927,0.060779624,-0.712417185,-0.085413635,0.002574623,0.119734108,0.295870066,-1.157245398,1.193124175,-0.060817109,0.7759776,-0.678102111
0.668992162,0.01596258,-0.74309814,-0.103824675,0.149427384,0.069024801,0.083937928,-1.015369773,1.506640553,-0.015963259,0.732966623,-0.64973034
0.668992162,0.01596258,-0.74309814,-0.103824675,0.149427384,0.069024801,0.083937928,-1.015369773,1.506640553,-0.015963259,0.732966623,-0.64973034
0.668992162,0.01596258,-0.74309814,-0.103824675,0.149427384,0.069024801,0.083937928,-1.015369773,1.506640553,-0.015963259,0.732966623,-0.64973034
0.668992162,0.01596258,-0.74309814,-0.103824675,0.149427384,0.069024801,0.083937928,-1.015369773,1.506640553,-0.015963259,0.732966623,-0.64973034
0.668992162,0.01596258,-0.74309814,-0.103824675,0.149427384,0.069024801,0.083937928,-1.015369773,1.506640553,-0.015963259,0.732966623,-0.64973034
0.668992162,0.01596258,-0.74309814,-0.103824675,0.149427384,0.069024801,0.083937928,-1.015369773,1.506640553,-0.015963259,0.732966623,-0.64973034
0.634748161,-0.028290693,-0.772201061,-0.091156542,0.280732244,0.172422886,-0.076401249,-1.279719472,2.017408371,0.028294467,0.688011486,-0.593873637
0.634748161,-0.028290693,-0.772201061,-0.091156542,0.280732244,0.172422886,-0.076401249,-1.279719472,2.017408371,0.028294467,0.688011486,-0.593873637
0.634748161,-0.028290693,-0.772201061,-0.091156542,0.280732244,0.172422886,-0.076401249,-1.279719472,2.017408371,0.028294467,0.688011486,-0.593873637
0.634748161,-0.028290693,-0.772201061,-0.091156542,0.280732244,0.172422886,-0.076401249,-1.279719472,2.017408371,0.028294467,0.688011486,-0.593873637
0.634748161,-0.028290693,-0.772201061,-0.091156542,0.280732244,0.172422886,-0.076401249,-1.279719472,2.017408371,0.028294467,0.688011486,-0.593873637
0.634748161,-0.028290693,-0.772201061,-0.091156542,0.280732244,0.172422886,-0.076401249,-1.279719472,2.017408371,0.028294467,0.688011486,-0.593873637
0.634748161,-0.028290693,-0.772201061,-0.091156542,0.280732244,0.172422886,-0.076401249,-1.279719472,2.017408371,0.028294467,0.688011486,-0.593873637
0.634748161,-0.028290693,-0.772201061,-0.091156542,0.280732244,0.172422886,-0.076401249,-1.279719472,2.017408371,0.028294467,0.688011486,-0.593873637
0.634748161,-0.028290693,-0.772201061,-0.091156542,0.280732244,0.172422886,-0.076401249,-1.279719472,2.017408371,0.028294467,0.688011486,-0.593873637
0.580188394,-0.082390361,-0.810304463,-0.140722454,-0.009467185,-0.049132347,-0.147466719,-1.726517081,2.352429867,0.082483857,0.621392199,-0.522350586
0.580188394,-0.082390361,-0.810304463,-0.140722454,-0.009467185,-0.049132347,-0.147466719,-1.726517081,2.352429867,0.082483857,0.621392199,-0.522350586
0.580188394,-0.082390361,-0.810304463,-0.140722454,-0.009467185,-0.049132347,-0.147466719,-1.726517081,2.352429867,0.082483857,0.621392199,-0.522350586
0.512391567,-0.126625434,-0.849364996,-0.126315832,0.116051644,0.145644307,-0.555711925,-1.713468671,2.419320345,0.126966278,0.542816247,-0.43664412
0.512391567,-0.126625434,-0.849364996,-0.126315832,0.116051644,0.145644307,-0.555711925,-1.713468671,2.419320345,0.126966278,0.542816247,-0.43664412
0.512391567,-0.126625434,-0.849364996,-0.126315832,0.116051644,0.145644307,-0.555711925,-1.713468671,2.419320345,0.126966278,0.542816247,-0.43664412
0.429908723,-0.135093659,-0.892708361,-0.089822412,-0.165839642,-0.092964053,-1.272078514,-2.274151802,2.446088552,0.13550799,0.44880171,-0.329651726
0.429908723,-0.135093659,-0.892708361,-0.089822412,-0.165839642,-0.092964053,-1.272078514,-2.274151802,2.446088552,0.13550799,0.44880171,-0.329651726
0.429908723,-0.135093659,-0.892708361,-0.089822412,-0.165839642,-0.092964053,-1.272078514,-2.274151802,2.446088552,0.13550799,0.44880171,-0.329651726
0.429908723,-0.135093659,-0.892708361,-0.089822412,-0.165839642,-0.092964053,-1.272078514,-2.274151802,2.446088552,0.13550799,0.44880171,-0.329651726
0.429908723,-0.135093659,-0.892708361,-0.089822412,-0.165839642,-0.092964053,-1.272078514,-2.274151802,2.446088552,0.13550799,0.44880171,-0.329651726
0.429908723,-0.135093659,-0.892708361,-0.089822412,-0.165839642,-0.092964053,-1.272078514,-2.274151802,2.446088552,0.13550799,0.44880171,-0.329651726
0.429908723,-0.135093659,-0.892708361,-0.089822412,-0.165839642,-0.092964053,-1.272078514,-2.274151802,2.446088552,0.13550799,0.44880171,-0.329651726
0.326525778,-0.138743564,-0.934949815,-0.031986475,-0.136600792,-0.049989998,-0.597700596,-2.421847582,2.533452272,0.139192589,0.336001312,-0.221431596
0.326525778,-0.138743564,-0.934949815,-0.031986475,-0.136600792,-0.049989998,-0.597700596,-2.421847582,2.533452272,0.139192589,0.336001312,-0.221431596
0.224145055,-0.124084987,-0.966623962,-0.0167941,-0.075591117,-0.034963012,-1.740017891,-2.354285002,1.850912333,0.124405638,0.227857401,-0.123893431
0.224145055,-0.124084987,-0.966623962,-0.0167941,-0.075591117,-0.034963012,-1.740017891,-2.354285002,1.850912333,0.124405638,0.227857401,-0.123893431
0.224145055,-0.124084987,-0.966623962,-0.0167941,-0.075591117,-0.034963012,-1.740017891,-2.354285002,1.850912333,0.124405638,0.227857401,-0.123893431
0.224145055,-0.124084987,-0.966623962,-0.0167941,-0.075591117,-0.034963012,-1.740017891,-2.354285002,1.850912333,0.124405638,0.227857401,-0.123893431
0.224145055,-0.124084987,-0.966623962,-0.0167941,-0.075591117,-0.034963012,-1.740017891,-2.354285002,1.850912333,0.124405638,0.227857401,-0.123893431
0.224145055,-0.124084987,-0.966623962,-0.0167941,-0.075591117,-0.034963012,-1.740017891,-2.354285002,1.850912333,0.124405638,0.227857401,-0.123893431
0.224145055,-0.124084987,-0.966623962,-0.0167941,-0.075591117,-0.034963012,-1.740017891,-2.354285002,1.850912333,0.124405638,0.227857401,-0.123893431
0.224145055,-0.124084987,-0.966623962,-0.0167941,-0.075591117,-0.034963012,-1.740017891,-2.354285002,1.850912333,0.124405638,0.227857401,-0.123893431
0.224145055,-0.124084987,-0.966623962,-0.0167941,-0.075591117,-0.034963012,-1.740017891,-2.354285002,1.850912333,0.124405638,0.227857401,-0.123893431
0.131772876,-0.049983934,-0.990018964,-0.043608055,-0.196155399,-0.318483293,-1.95078814,-2.169627428,1.720338702,0.050004772,0.132323614,-0.034512422
0.131772876,-0.049983934,-0.990018964,-0.043608055,-0.196155399,-0.318483293,-1.95078814,-2.169627428,1.720338702,0.050004772,0.132323614,-0.034512422
0.131772876,-0.049983934,-0.990018964,-0.043608055,-0.196155399,-0.318483293,-1.95078814,-2.169627428,1.720338702,0.050004772,0.132323614,-0.034512422
0.131772876,-0.049983934,-0.990018964,-0.043608055,-0.196155399,-0.318483293,-1.95078814,-2.169627428,1.720338702,0.050004772,0.132323614,-0.034512422
0.131772876,-0.049983934,-0.990018964,-0.043608055,-0.196155399,-0.318483293,-1.95078814,-2.169627428,1.720338702,0.050004772,0.132323614,-0.034512422
0.131772876,-0.049983934,-0.990018964,-0.043608055,-0.196155399,-0.318483293,-1.95078814,-2.169627428,1.720338702,0.050004772,0.132323614,-0.034512422
0.131772876,-0.049983934,-0.990018964,-0.043608055,-0.196155399,-0.318483293,-1.95078814,-2.169627428,1.720338702,0.050004772,0.132323614,-0.034512422
0.131772876,-0.049983934,-0.990018964,-0.043608055,-0.196155399,-0.318483293,-1.95078814,-2.169627428,1.720338702,0.050004772,0.132323614,-0.034512422
0.131772876,-0.049983934,-0.990018964,-0.043608055,-0.196155399,-0.318483293,-1.95078814,-2.169627428,1.720338702,0.050004772,0.132323614,-0.034512422
0.046561785,-0.032997936,-0.99837023,0.045463815,0.200890526,0.112078726,0.88372457,-1.902665615,1.218704104,0.033003926,0.046604025,0.02475738
0.046561785,-0.032997936,-0.99837023,0.045463815,0.200890526,0.112078726,0.88372457,-1.902665615,1.218704104,0.033003926,0.046604025,0.02475738
0.046561785,-0.032997936,-0.99837023,0.045463815,0.200890526,0.112078726,0.88372457,-1.902665615,1.218704104,0.033003926,0.046604025,0.02475738
0.046561785,-0.032997936,-0.99837023,0.045463815,0.200890526,0.112078726,0.88372457,-1.902665615,1.218704104,0.033003926,0.046604025,0.02475738
0.046561785,-0.032997936,-0.99837023,0.045463815,0.200890526,0.112078726,0.88372457,-1.902665615,1.218704104,0.033003926,0.046604025,0.02475738
0.046561785,-0.032997936,-0.99837023,0.045463815,0.200890526,0.112078726,0.88372457,-1.902665615,1.218704104,0.033003926,0.046604025,0.02475738
0.046561785,-0.032997936,-0.99837023,0.045463815,0.200890526,0.112078726,0.88372457,-1.902665615,1.218704104,0.033003926,0.046604025,0.02475738
0.046561785,-0.032997936,-0.99837023,0.045463815,0.200890526,0.112078726,0.88372457,-1.902665615,1.218704104,0.033003926,0.046604025,0.02475738
0.046561785,-0.032997936,-0.99837023,0.045463815,0.200890526,0.112078726,0.88372457,-1.902665615,1.218704104,0.033003926,0.046604025,0.02475738
-0.021591393,-0.102201343,-0.994529366,-0.204604819,-0.263261557,-0.501579642,2.379383326,-1.221798062,0.996957839,0.102380101,-0.021706752,0.060754066
-0.021591393,-0.102201343,-0.994529366,-0.204604819,-0.263261557,-0.501579642,2.379383326,-1.221798062,0.996957839,0.102380101,-0.021706752,0.060754066
-0.021591393,-0.102201343,-0.994529366,-0.204604819,-0.263261557,-0.501579642,2.379383326,-1.221798062,0.996957839,0.102380101,-0.021706752,0.060754066
-0.021591393,-0.102201343,-0.994529366,-0.204604819,-0.263261557,-0.501579642,2.379383326,-1.221798062,0.996957839,0.102380101,-0.021706752,0.060754066
-0.021591393,-0.102201343,-0.994529366,-0.204604819,-0.263261557,-0.501579642,2.379383326,-1.221798062,0.996957839,0.102380101,-0.021706752,0.060754066
-0.021591393,-0.102201343,-0.994529366,-0.204604819,-0.263261557,-0.501579642,2.379383326,-1.221798062,0.996957839,0.102380101,-0.021706752,0.060754066
-0.021591393,-0.102201343,-0.994529366,-0.204604819,-0.263261557,-0.501579642,2.379383326,-1.221798062,0.996957839,0.102380101,-0.021706752,0.060754066
-0.021591393,-0.102201343,-0.994529366,-0.204604819,-0.263261557,-0.501579642,2.379383326,-1.221798062,0.996957839,0.102380101,-0.021706752,0.060754066
-0.021591393,-0.102201343,-0.994529366,-0.204604819,-0.263261557,-0.501579642,2.379383326,-1.221798062,0.996957839,0.102380101,-0.021706752,0.060754066
-0.062514596,-0.138939664,-0.988325715,-0.083603367,-0.483481109,0.12107712,-0.307884157,-0.498649269,0.326900244,0.139390615,-0.063168878,0.085399656
-0.062514596,-0.138939664,-0.988325715,-0.083603367,-0.483481109,0.12107712,-0.307884157,-0.498649269,0.326900244,0.139390615,-0.063168878,0.085399656
-0.062514596,-0.138939664,-0.988325715,-0.083603367,-0.483481109,0.12107712,-0.307884157,-0.498649269,0.326900244,0.139390615,-0.063168878,0.085399656
-0.062514596,-0.138939664,-0.988325715,-0.083603367,-0.483481109,0.12107712,-0.307884157,-0.498649269,0.326900244,0.139390615,-0.063168878,0.085399656
-0.062514596,-0.138939664,-0.988325715,-0.083603367,-0.483481109,0.12107712,-0.307884157,-0.498649269,0.326900244,0.139390615,-0.063168878,0.085399656
-0.062514596,-0.138939664,-0.988325715,-0.083603367,-0.483481109,0.12107712,-0.307884157,-0.498649269,0.326900244,0.139390615,-0.063168878,0.085399656
-0.074664816,-0.131386116,-0.988515496,0.158557892,0.118874356,-0.017511785,0.175977334,-0.533294499,0.086665064,0.131767092,-0.075389119,0.095189906
-0.074664816,-0.131386116,-0.988515496,0.158557892,0.118874356,-0.017511785,0.175977334,-0.533294499,0.086665064,0.131767092,-0.075389119,0.095189906
-0.074664816,-0.131386116,-0.988515496,0.158557892,0.118874356,-0.017511785,0.175977334,-0.533294499,0.086665064,0.131767092,-0.075389119,0.095189906
-0.074664816,-0.131386116,-0.988515496,0.158557892,0.118874356,-0.017511785,0.175977334,-0.533294499,0.086665064,0.131767092,-0.075389119,0.095189906
-0.074664816,-0.131386116,-0.988515496,0.158557892,0.118874356,-0.017511785,0.175977334,-0.533294499,0.086665064,0.131767092,-0.075389119,0.095189906
-0.074664816,-0.131386116,-0.988515496,0.158557892,0.118874356,-0.017511785,0.175977334,-0.533294499,0.086665064,0.131767092,-0.075389119,0.095189906
-0.074664816,-0.131386116,-0.988515496,0.158557892,0.118874356,-0.017511785,0.175977334,-0.533294499,0.086665064,0.131767092,-0.075389119,0.095189906
-0.074664816,-0.131386116,-0.988515496,0.158557892,0.118874356,-0.017511785,0.175977334,-0.533294499,0.086665064,0.131767092,-0.075389119,0.095189906
-0.074664816,-0.131386116,-0.988515496,0.158557892,0.118874356,-0.017511785,0.175977334,-0.533294499,0.086665064,0.131767092,-0.075389119,0.095189906
-0.094161205,-0.143305033,-0.985188961,-0.053116344,0.02045697,0.027623653,0.274268568,-0.342829973,0.111465484,0.143800119,-0.095287352,0.098704751
-0.094161205,-0.143305033,-0.985188961,-0.053116344,0.02045697,0.027623653,0.274268568,-0.342829973,0.111465484,0.143800119,-0.095287352,0.098704751
-0.094161205,-0.143305033,-0.985188961,-0.053116344,0.02045697,0.027623653,0.274268568,-0.342829973,0.111465484,0.143800119,-0.095287352,0.098704751
-0.094161205,-0.143305033,-0.985188961,-0.053116344,0.02045697,0.027623653,0.274268568,-0.342829973,0.111465484,0.143800119,-0.095287352,0.098704751
-0.094161205,-0.143305033,-0.985188961,-0.053116344,0.02045697,0.027623653,0.274268568,-0.342829973,0.111465484,0.143800119,-0.095287352,0.098704751
-0.094161205,-0.143305033,-0.985188961,-0.053116344,0.02045697,0.027623653,0.274268568,-0.342829973,0.111465484,0.143800119,-0.095287352,0.098704751
-0.103214584,-0.152431503,-0.982909679,-0.034953423,0.012920916,0.0229792,0.198124185,-0.077498145,0.058477104,0.153028068,-0.104625782,0.10326113
-0.103214584,-0.152431503,-0.982909679,-0.034953423,0.012920916,0.0229792,0.198124185,-0.077498145,0.058477104,0.153028068,-0.104625782,0.10326113
-0.103214584,-0.152431503,-0.982909679,-0.034953423,0.012920916,0.0229792,0.198124185,-0.077498145,0.058477104,0.153028068,-0.104625782,0.10326113
-0.103214584,-0.152431503,-0.982909679,-0.034953423,0.012920916,0.0229792,0.198124185,-0.077498145,0.058477104,0.153028068,-0.104625782,0.10326113
-0.103214584,-0.152431503,-0.982909679,-0.034953423,0.012920916,0.0229792,0.198124185,-0.077498145,0.058477104,0.153028068,-0.104625782,0.10326113
-0.103214584,-0.152431503,-0.982909679,-0.034953423,0.012920916,0.0229792,0.198124185,-0.077498145,0.058477104,0.153028068,-0.104625782,0.10326113
-0.103354655,-0.156158179,-0.982309759,-0.015556782,-0.00782755,-0.001485467,-0.090763621,0.045180492,-0.019157022,0.156799902,-0.104830248,0.104374861
-0.103354655,-0.156158179,-0.982309759,-0.015556782,-0.00782755,-0.001485467,-0.090763621,0.045180492,-0.019157022,0.156799902,-0.104830248,0.104374861
-0.103354655,-0.156158179,-0.982309759,-0.015556782,-0.00782755,-0.001485467,-0.090763621,0.045180492,-0.019157022,0.156799902,-0.104830248,0.104374861
-0.103354655,-0.156158179,-0.982309759,-0.015556782,-0.00782755,-0.001485467,-0.090763621,0.045180492,-0.019157022,0.156799902,-0.104830248,0.104374861
-0.103354655,-0.156158179,-0.982309759,-0.015556782,-0.00782755,-0.001485467,-0.090763621,0.045180492,-0.019157022,0.156799902,-0.104830248,0.104374861
-0.100265548,-0.150083408,-0.983576,0.013000853,-0.010575891,0.007669568,-0.14096804,-0.014654007,-0.010292586,0.150652631,-0.101588879,0.101706564
-0.100265548,-0.150083408,-0.983576,0.013000853,-0.010575891,0.007669568,-0.14096804,-0.014654007,-0.010292586,0.150652631,-0.101588879,0.101706564
-0.100265548,-0.150083408,-0.983576,0.013000853,-0.010575891,0.007669568,-0.14096804,-0.014654007,-0.010292586,0.150652631,-0.101588879,0.101706564
-0.095031552,-0.134616733,-0.986330211,0.024826169,0.036350593,-0.005140126,-0.051095758,-0.044997096,-6.71E-06,0.135026663,-0.096052129,0.09904014
-0.095031552,-0.134616733,-0.986330211,0.024826169,0.036350593,-0.005140126,-0.051095758,-0.044997096,-6.71E-06,0.135026663,-0.096052129,0.09904014
-0.096893489,-0.133841261,-0.986254632,0.006241336,-0.010628492,0.008562922,-0.122170076,-0.016470052,-0.001478694,0.134244114,-0.09792963,0.098791726
-0.096893489,-0.133841261,-0.986254632,0.006241336,-0.010628492,0.008562922,-0.122170076,-0.016470052,-0.001478694,0.134244114,-0.09792963,0.098791726
-0.096893489,-0.133841261,-0.986254632,0.006241336,-0.010628492,0.008562922,-0.122170076,-0.016470052,-0.001478694,0.134244114,-0.09792963,0.098791726
-0.095006227,-0.12491589,-0.987608135,0.001180246,-0.001945257,0.01312077,-0.202244148,0.030258836,-0.011141441,0.125243055,-0.095903199,0.097365053
-0.095006227,-0.12491589,-0.987608135,0.001180246,-0.001945257,0.01312077,-0.202244148,0.030258836,-0.011141441,0.125243055,-0.095903199,0.097365053
-0.095006227,-0.12491589,-0.987608135,0.001180246,-0.001945257,0.01312077,-0.202244148,0.030258836,-0.011141441,0.125243055,-0.095903199,0.097365053
-0.095006227,-0.12491589,-0.987608135,0.001180246,-0.001945257,0.01312077,-0.202244148,0.030258836,-0.011141441,0.125243055,-0.095903199,0.097365053
-0.09480045,-0.115974471,-0.988717735,0.005689427,0.004784063,0.007287681,-0.24692975,0.005083418,0.006295499,0.116236032,-0.095589996,0.096554082
-0.09480045,-0.115974471,-0.988717735,0.005689427,0.004784063,0.007287681,-0.24692975,0.005083418,0.006295499,0.116236032,-0.095589996,0.096554082
-0.09480045,-0.115974471,-0.988717735,0.005689427,0.004784063,0.007287681,-0.24692975,0.005083418,0.006295499,0.116236032,-0.095589996,0.096554082
-0.093123488,-0.108387396,-0.989737451,0.000838637,0.017292798,0.018896937,-0.185904428,0.071700498,-0.005217719,0.108600747,-0.093812898,0.095603013
-0.093123488,-0.108387396,-0.989737451,0.000838637,0.017292798,0.018896937,-0.185904428,0.071700498,-0.005217719,0.108600747,-0.093812898,0.095603013
-0.093123488,-0.108387396,-0.989737451,0.000838637,0.017292798,0.018896937,-0.185904428,0.071700498,-0.005217719,0.108600747,-0.093812898,0.095603013
-0.093123488,-0.108387396,-0.989737451,0.000838637,0.017292798,0.018896937,-0.185904428,0.071700498,-0.005217719,0.108600747,-0.093812898,0.095603013
-0.093211681,-0.094002619,-0.991198838,-6.50E-05,-0.038077138,0.004092455,-0.361501008,0.01483428,0.004682689,0.094141612,-0.09376359,0.094568251
-0.090393178,-0.077086203,-0.992918313,0.003250524,0.009245895,0.013334572,-0.421954513,0.050692059,-0.004300206,0.077162755,-0.090787616,0.092610469
-0.090393178,-0.077086203,-0.992918313,0.003250524,0.009245895,0.013334572,-0.421954513,0.050692059,-0.004300206,0.077162755,-0.090787616,0.092610469
-0.089141972,-0.062154762,-0.994077682,0.006729543,-0.004785318,0.01200676,-0.47472614,0.008796675,-0.003947391,0.062194852,-0.089433834,0.090649196
-0.086987071,-0.043998428,-0.99523735,-0.006045483,0.001411308,0.023450851,-0.53555721,0.090429939,-0.022945689,0.044012636,-0.087181791,0.088152708
-0.086987071,-0.043998428,-0.99523735,-0.006045483,0.001411308,0.023450851,-0.53555721,0.090429939,-0.022945689,0.044012636,-0.087181791,0.088152708
-0.083871074,-0.024466751,-0.996176183,0.003869519,0.022559503,0.012533605,-0.503938794,0.071472988,-0.001931857,0.024469193,-0.083994924,0.085655538
-0.083871074,-0.024466751,-0.996176183,0.003869519,0.022559503,0.012533605,-0.503938794,0.071472988,-0.001931857,0.024469193,-0.083994924,0.085655538
-0.083871074,-0.024466751,-0.996176183,0.003869519,0.022559503,0.012533605,-0.503938794,0.071472988,-0.001931857,0.024469193,-0.083994924,0.085655538
-0.083871074,-0.024466751,-0.996176183,0.003869519,0.022559503,0.012533605,-0.503938794,0.071472988,-0.001931857,0.024469193,-0.083994924,0.085655538
-0.080957815,-0.008130168,-0.996684372,0.002665244,0.029843476,0.023417771,-0.382208616,0.08022245,0.017898094,0.008130257,-0.081049194,0.084375668
-0.080957815,-0.008130168,-0.996684372,0.002665244,0.029843476,0.023417771,-0.382208616,0.08022245,0.017898094,0.008130257,-0.081049194,0.084375668
-0.080957815,-0.008130168,-0.996684372,0.002665244,0.029843476,0.023417771,-0.382208616,0.08022245,0.017898094,0.008130257,-0.081049194,0.084375668
-0.079454504,0.002806744,-0.996834517,0.012880698,0.018647127,0.010811567,-0.138461486,-0.042769566,0.033794396,-0.002806748,-0.079538654,0.08432317
-0.079454504,0.002806744,-0.996834517,0.012880698,0.018647127,0.010811567,-0.138461486,-0.042769566,0.033794396,-0.002806748,-0.079538654,0.08432317
-0.079454504,0.002806744,-0.996834517,0.012880698,0.018647127,0.010811567,-0.138461486,-0.042769566,0.033794396,-0.002806748,-0.079538654,0.08432317
-0.079454504,0.002806744,-0.996834517,0.012880698,0.018647127,0.010811567,-0.138461486,-0.042769566,0.033794396,-0.002806748,-0.079538654,0.08432317
-0.080191828,0.010293534,-0.996726274,0.014030024,0.026480135,0.018012285,-0.129449472,-0.042052705,0.098973714,-0.010293715,-0.080282292,0.086854775
-0.080191828,0.010293534,-0.996726274,0.014030024,0.026480135,0.018012285,-0.129449472,-0.042052705,0.098973714,-0.010293715,-0.080282292,0.086854775
-0.080191828,0.010293534,-0.996726274,0.014030024,0.026480135,0.018012285,-0.129449472,-0.042052705,0.098973714,-0.010293715,-0.080282292,0.086854775
-0.083540328,0.014538776,-0.99639833,0.007918082,0.023089368,0.014144301,-0.09218771,-0.093387157,0.036369778,-0.014539289,-0.083646667,0.088868618
-0.083540328,0.014538776,-0.99639833,0.007918082,0.023089368,0.014144301,-0.09218771,-0.093387157,0.036369778,-0.014539289,-0.083646667,0.088868618
-0.083540328,0.014538776,-0.99639833,0.007918082,0.023089368,0.014144301,-0.09218771,-0.093387157,0.036369778,-0.014539289,-0.083646667,0.088868618
-0.083540328,0.014538776,-0.99639833,0.007918082,0.023089368,0.014144301,-0.09218771,-0.093387157,0.036369778,-0.014539289,-0.083646667,0.088868618
-0.083540328,0.014538776,-0.99639833,0.007918082,0.023089368,0.014144301,-0.09218771,-0.093387157,0.036369778,-0.014539289,-0.083646667,0.088868618
-0.083540328,0.014538776,-0.99639833,0.007918082,0.023089368,0.014144301,-0.09218771,-0.093387157,0.036369778,-0.014539289,-0.083646667,0.088868618
-0.085496269,0.022266062,-0.996089637,0.012468047,-0.013416028,0.004756629,-0.258821368,-0.034747135,-0.014150441,-0.022267903,-0.085622053,0.08837851
-0.085496269,0.022266062,-0.996089637,0.012468047,-0.013416028,0.004756629,-0.258821368,-0.034747135,-0.014150441,-0.022267903,-0.085622053,0.08837851
-0.085496269,0.022266062,-0.996089637,0.012468047,-0.013416028,0.004756629,-0.258821368,-0.034747135,-0.014150441,-0.022267903,-0.085622053,0.08837851
-0.084614649,0.032210506,-0.995893002,0.003346696,0.039276809,0.026975155,-0.140760288,0.001792004,-0.031562615,-0.032216079,-0.084760033,0.086492062
-0.084614649,0.032210506,-0.995893002,0.003346696,0.039276809,0.026975155,-0.140760288,0.001792004,-0.031562615,-0.032216079,-0.084760033,0.086492062
-0.084614649,0.032210506,-0.995893002,0.003346696,0.039276809,0.026975155,-0.140760288,0.001792004,-0.031562615,-0.032216079,-0.084760033,0.086492062
-0.084614649,0.032210506,-0.995893002,0.003346696,0.039276809,0.026975155,-0.140760288,0.001792004,-0.031562615,-0.032216079,-0.084760033,0.086492062
-0.084614649,0.032210506,-0.995893002,0.003346696,0.039276809,0.026975155,-0.140760288,0.001792004,-0.031562615,-0.032216079,-0.084760033,0.086492062
-0.085166827,0.036120027,-0.995711803,0.000511423,0.026227254,0.004943311,-0.151689112,-0.036454052,-0.034557126,-0.036127887,-0.085325939,0.084514777
-0.085166827,0.036120027,-0.995711803,0.000511423,0.026227254,0.004943311,-0.151689112,-0.036454052,-0.034557126,-0.036127887,-0.085325939,0.084514777
-0.085166827,0.036120027,-0.995711803,0.000511423,0.026227254,0.004943311,-0.151689112,-0.036454052,-0.034557126,-0.036127887,-0.085325939,0.084514777
-0.085166827,0.036120027,-0.995711803,0.000511423,0.026227254,0.004943311,-0.151689112,-0.036454052,-0.034557126,-0.036127887,-0.085325939,0.084514777
-0.085166827,0.036120027,-0.995711803,0.000511423,0.026227254,0.004943311,-0.151689112,-0.036454052,-0.034557126,-0.036127887,-0.085325939,0.084514777
-0.084480576,0.045777433,-0.995373011,-0.038062423,-0.007020265,0.001766443,-0.352727711,0.063812852,-0.03800283,-0.045793436,-0.084670366,0.082394087
-0.084480576,0.045777433,-0.995373011,-0.038062423,-0.007020265,0.001766443,-0.352727711,0.063812852,-0.03800283,-0.045793436,-0.084670366,0.082394087
-0.084480576,0.045777433,-0.995373011,-0.038062423,-0.007020265,0.001766443,-0.352727711,0.063812852,-0.03800283,-0.045793436,-0.084670366,0.082394087
-0.080400914,0.062008847,-0.99483192,0.000582479,0.039049909,0.03174293,-0.390488476,0.088976912,-0.031733267,-0.062048653,-0.080643314,0.079351451
-0.080400914,0.062008847,-0.99483192,0.000582479,0.039049909,0.03174293,-0.390488476,0.088976912,-0.031733267,-0.062048653,-0.080643314,0.079351451
-0.080400914,0.062008847,-0.99483192,0.000582479,0.039049909,0.03174293,-0.390488476,0.088976912,-0.031733267,-0.062048653,-0.080643314,0.079351451
-0.080400914,0.062008847,-0.99483192,0.000582479,0.039049909,0.03174293,-0.390488476,0.088976912,-0.031733267,-0.062048653,-0.080643314,0.079351451
-0.080400914,0.062008847,-0.99483192,0.000582479,0.039049909,0.03174293,-0.390488476,0.088976912,-0.031733267,-0.062048653,-0.080643314,0.079351451
-0.078474097,0.075720869,-0.994036317,-0.003617898,0.000847474,0.012636721,-0.374531239,0.073913917,-0.024416022,-0.075793419,-0.078781508,0.077022186
-0.078474097,0.075720869,-0.994036317,-0.003617898,0.000847474,0.012636721,-0.374531239,0.073913917,-0.024416022,-0.075793419,-0.078781508,0.077022186
-0.078474097,0.075720869,-0.994036317,-0.003617898,0.000847474,0.012636721,-0.374531239,0.073913917,-0.024416022,-0.075793419,-0.078781508,0.077022186
-0.078474097,0.075720869,-0.994036317,-0.003617898,0.000847474,0.012636721,-0.374531239,0.073913917,-0.024416022,-0.075793419,-0.078781508,0.077022186
-0.076943964,0.090653569,-0.992905617,0.0051364,0.001905911,0.008118629,-0.37629962,0.065826334,0.021410376,-0.090778193,-0.077339166,0.075705682
-0.076943964,0.090653569,-0.992905617,0.0051364,0.001905911,0.008118629,-0.37629962,0.065826334,0.021410376,-0.090778193,-0.077339166,0.075705682
-0.076943964,0.090653569,-0.992905617,0.0051364,0.001905911,0.008118629,-0.37629962,0.065826334,0.021410376,-0.090778193,-0.077339166,0.075705682
-0.076943964,0.090653569,-0.992905617,0.0051364,0.001905911,0.008118629,-0.37629962,0.065826334,0.021410376,-0.090778193,-0.077339166,0.075705682
-0.075295947,0.118311606,-0.99011761,0.11181055,0.134419248,0.086034298,0.101810798,0.124923974,0.202675134,-0.118589376,-0.075901388,0.076013568
-0.072450064,0.102188893,-0.992123187,-0.067518488,-0.08186461,0.102352619,-0.013268924,0.166022673,-0.084635735,-0.102367587,-0.072895874,0.076338759
-0.072450064,0.102188893,-0.992123187,-0.067518488,-0.08186461,0.102352619,-0.013268924,0.166022673,-0.084635735,-0.102367587,-0.072895874,0.076338759
-0.072450064,0.102188893,-0.992123187,-0.067518488,-0.08186461,0.102352619,-0.013268924,0.166022673,-0.084635735,-0.102367587,-0.072895874,0.076338759
-0.072450064,0.102188893,-0.992123187,-0.067518488,-0.08186461,0.102352619,-0.013268924,0.166022673,-0.084635735,-0.102367587,-0.072895874,0.076338759
-0.072450064,0.102188893,-0.992123187,-0.067518488,-0.08186461,0.102352619,-0.013268924,0.166022673,-0.084635735,-0.102367587,-0.072895874,0.076338759
-0.072450064,0.102188893,-0.992123187,-0.067518488,-0.08186461,0.102352619,-0.013268924,0.166022673,-0.084635735,-0.102367587,-0.072895874,0.076338759
-0.073081873,0.102348857,-0.992060363,0.040107958,0.013022423,-0.009831786,-0.063270301,-0.05463589,0.060658876,-0.102528396,-0.073533934,0.077375673
-0.073081873,0.102348857,-0.992060363,0.040107958,0.013022423,-0.009831786,-0.063270301,-0.05463589,0.060658876,-0.102528396,-0.073533934,0.077375673
-0.073081873,0.102348857,-0.992060363,0.040107958,0.013022423,-0.009831786,-0.063270301,-0.05463589,0.060658876,-0.102528396,-0.073533934,0.077375673
-0.071642652,0.105061471,-0.991881728,0.007281408,0.008280352,0.030440688,-0.009908001,0.038277194,-0.018317649,-0.105255712,-0.072103806,0.0773237
-0.071642652,0.105061471,-0.991881728,0.007281408,0.008280352,0.030440688,-0.009908001,0.038277194,-0.018317649,-0.105255712,-0.072103806,0.0773237
-0.071642652,0.105061471,-0.991881728,0.007281408,0.008280352,0.030440688,-0.009908001,0.038277194,-0.018317649,-0.105255712,-0.072103806,0.0773237
-0.070964083,0.106155291,-0.991814077,0.008525461,0.037765115,0.001259208,-0.033064332,-0.011939581,0.00910753,-0.106355685,-0.071428058,0.076697229
-0.070964083,0.106155291,-0.991814077,0.008525461,0.037765115,0.001259208,-0.033064332,-0.011939581,0.00910753,-0.106355685,-0.071428058,0.076697229
-0.070964083,0.106155291,-0.991814077,0.008525461,0.037765115,0.001259208,-0.033064332,-0.011939581,0.00910753,-0.106355685,-0.071428058,0.076697229
-0.070879109,0.109878905,-0.991414547,0.004671589,-0.012803026,0.011876523,-0.133245394,0.032471053,-0.005823481,-0.110101217,-0.071371474,0.076644387
-0.070879109,0.109878905,-0.991414547,0.004671589,-0.012803026,0.011876523,-0.133245394,0.032471053,-0.005823481,-0.110101217,-0.071371474,0.076644387
-0.070879109,0.109878905,-0.991414547,0.004671589,-0.012803026,0.011876523,-0.133245394,0.032471053,-0.005823481,-0.110101217,-0.071371474,0.076644387
-0.068978503,0.115900867,-0.990862727,-0.00081484,0.021168269,0.028094113,-0.075752325,0.052410308,-0.019819405,-0.116161931,-0.069502462,0.075623307
-0.068978503,0.115900867,-0.990862727,-0.00081484,0.021168269,0.028094113,-0.075752325,0.052410308,-0.019819405,-0.116161931,-0.069502462,0.075623307
-0.068978503,0.115900867,-0.990862727,-0.00081484,0.021168269,0.028094113,-0.075752325,0.052410308,-0.019819405,-0.116161931,-0.069502462,0.075623307
-0.068978503,0.115900867,-0.990862727,-0.00081484,0.021168269,0.028094113,-0.075752325,0.052410308,-0.019819405,-0.116161931,-0.069502462,0.075623307
-0.068978503,0.115900867,-0.990862727,-0.00081484,0.021168269,0.028094113,-0.075752325,0.052410308,-0.019819405,-0.116161931,-0.069502462,0.075623307
-0.068978503,0.115900867,-0.990862727,-0.00081484,0.021168269,0.028094113,-0.075752325,0.052410308,-0.019819405,-0.116161931,-0.069502462,0.075623307
-0.068417877,0.117245331,-0.990743399,0.007566199,0.030306563,0.010793447,-0.048905786,-0.010658007,0.011482113,-0.117515622,-0.068947648,0.075094976
-0.068417877,0.117245331,-0.990743399,0.007566199,0.030306563,0.010793447,-0.048905786,-0.010658007,0.011482113,-0.117515622,-0.068947648,0.075094976
-0.068417877,0.117245331,-0.990743399,0.007566199,0.030306563,0.010793447,-0.048905786,-0.010658007,0.011482113,-0.117515622,-0.068947648,0.075094976
-0.068417877,0.117245331,-0.990743399,0.007566199,0.030306563,0.010793447,-0.048905786,-0.010658007,0.011482113,-0.117515622,-0.068947648,0.075094976
-0.068417877,0.117245331,-0.990743399,0.007566199,0.030306563,0.010793447,-0.048905786,-0.010658007,0.011482113,-0.117515622,-0.068947648,0.075094976
-0.068417877,0.117245331,-0.990743399,0.007566199,0.030306563,0.010793447,-0.048905786,-0.010658007,0.011482113,-0.117515622,-0.068947648,0.075094976
-0.067610979,0.119456865,-0.990534604,-0.000397064,0.007114142,0.028269529,-0.029126531,0.037727717,-0.026248116,-0.119742816,-0.068151352,0.074752739
-0.067610979,0.119456865,-0.990534604,-0.000397064,0.007114142,0.028269529,-0.029126531,0.037727717,-0.026248116,-0.119742816,-0.068151352,0.074752739
-0.067610979,0.119456865,-0.990534604,-0.000397064,0.007114142,0.028269529,-0.029126531,0.037727717,-0.026248116,-0.119742816,-0.068151352,0.074752739
-0.067610979,0.119456865,-0.990534604,-0.000397064,0.007114142,0.028269529,-0.029126531,0.037727717,-0.026248116,-0.119742816,-0.068151352,0.074752739
-0.067610979,0.119456865,-0.990534604,-0.000397064,0.007114142,0.028269529,-0.029126531,0.037727717,-0.026248116,-0.119742816,-0.068151352,0.074752739
-0.067610979,0.119456865,-0.990534604,-0.000397064,0.007114142,0.028269529,-0.029126531,0.037727717,-0.026248116,-0.119742816,-0.068151352,0.074752739
-0.067610979,0.119456865,-0.990534604,-0.000397064,0.007114142,0.028269529,-0.029126531,0.037727717,-0.026248116,-0.119742816,-0.068151352,0.074752739
-0.067610979,0.119456865,-0.990534604,-0.000397064,0.007114142,0.028269529,-0.029126531,0.037727717,-0.026248116,-0.119742816,-0.068151352,0.074752739
-0.067610979,0.119456865,-0.990534604,-0.000397064,0.007114142,0.028269529,-0.029126531,0.037727717,-0.026248116,-0.119742816,-0.068151352,0.074752739
-0.067610979,0.119456865,-0.990534604,-0.000397064,0.007114142,0.028269529,-0.029126531,0.037727717,-0.026248116,-0.119742816,-0.068151352,0.074752739
-0.067610979,0.119456865,-0.990534604,-0.000397064,0.007114142,0.028269529,-0.029126531,0.037727717,-0.026248116,-0.119742816,-0.068151352,0.074752739
-0.067610979,0.119456865,-0.990534604,-0.000397064,0.007114142,0.028269529,-0.029126531,0.037727717,-0.026248116,-0.119742816,-0.068151352,0.074752739
-0.067327648,0.120346025,-0.99044627,0.014395304,0.028670639,0.01035893,-0.010494043,-0.036224365,0.000600063,-0.12063843,-0.06787267,0.073960853
-0.067327648,0.120346025,-0.99044627,0.014395304,0.028670639,0.01035893,-0.010494043,-0.036224365,0.000600063,-0.12063843,-0.06787267,0.073960853
-0.067327648,0.120346025,-0.99044627,0.014395304,0.028670639,0.01035893,-0.010494043,-0.036224365,0.000600063,-0.12063843,-0.06787267,0.073960853
-0.067327648,0.120346025,-0.99044627,0.014395304,0.028670639,0.01035893,-0.010494043,-0.036224365,0.000600063,-0.12063843,-0.06787267,0.073960853
-0.067327648,0.120346025,-0.99044627,0.014395304,0.028670639,0.01035893,-0.010494043,-0.036224365,0.000600063,-0.12063843,-0.06787267,0.073960853
-0.067327648,0.120346025,-0.99044627,0.014395304,0.028670639,0.01035893,-0.010494043,-0.036224365,0.000600063,-0.12063843,-0.06787267,0.073960853
-0.067327648,0.120346025,-0.99044627,0.014395304,0.028670639,0.01035893,-0.010494043,-0.036224365,0.000600063,-0.12063843,-0.06787267,0.073960853
-0.067327648,0.120346025,-0.99044627,0.014395304,0.028670639,0.01035893,-0.010494043,-0.036224365,0.000600063,-0.12063843,-0.06787267,0.073960853
-0.067327648,0.120346025,-0.99044627,0.014395304,0.028670639,0.01035893,-0.010494043,-0.036224365,0.000600063,-0.12063843,-0.06787267,0.073960853
-0.067327648,0.120346025,-0.99044627,0.014395304,0.028670639,0.01035893,-0.010494043,-0.036224365,0.000600063,-0.12063843,-0.06787267,0.073960853
-0.067327648,0.120346025,-0.99044627,0.014395304,0.028670639,0.01035893,-0.010494043,-0.036224365,0.000600063,-0.12063843,-0.06787267,0.073960853
-0.067653134,0.124262616,-0.989940345,0.001445651,-0.005992442,0.012141824,-0.112323269,0.024234707,0.021072581,-0.124584655,-0.068234524,0.074752662
-0.067653134,0.124262616,-0.989940345,0.001445651,-0.005992442,0.012141824,-0.112323269,0.024234707,0.021072581,-0.124584655,-0.068234524,0.074752662
-0.067653134,0.124262616,-0.989940345,0.001445651,-0.005992442,0.012141824,-0.112323269,0.024234707,0.021072581,-0.124584655,-0.068234524,0.074752662
-0.067653134,0.124262616,-0.989940345,0.001445651,-0.005992442,0.012141824,-0.112323269,0.024234707,0.021072581,-0.124584655,-0.068234524,0.074752662
-0.067653134,0.124262616,-0.989940345,0.001445651,-0.005992442,0.012141824,-0.112323269,0.024234707,0.021072581,-0.124584655,-0.068234524,0.074752662
-0.06802956,0.136696175,-0.988274336,0.009054735,0.009817943,0.022896469,-2.221567631,-0.528999269,-0.146907583,-0.137125508,-0.068728299,0.073710371
-0.058802545,0.149523675,-0.987008095,0.175029099,0.123195827,-0.073676229,0.179174706,-0.091508031,0.181496456,-0.150086513,-0.059506224,0.074759675
-0.058802545,0.149523675,-0.987008095,0.175029099,0.123195827,-0.073676229,0.179174706,-0.091508031,0.181496456,-0.150086513,-0.059506224,0.074759675
-0.058802545,0.149523675,-0.987008095,0.175029099,0.123195827,-0.073676229,0.179174706,-0.091508031,0.181496456,-0.150086513,-0.059506224,0.074759675
-0.058802545,0.149523675,-0.987008095,0.175029099,0.123195827,-0.073676229,0.179174706,-0.091508031,0.181496456,-0.150086513,-0.059506224,0.074759675
-0.058802545,0.149523675,-0.987008095,0.175029099,0.123195827,-0.073676229,0.179174706,-0.091508031,0.181496456,-0.150086513,-0.059506224,0.074759675
-0.058802545,0.149523675,-0.987008095,0.175029099,0.123195827,-0.073676229,0.179174706,-0.091508031,0.181496456,-0.150086513,-0.059506224,0.074759675
-0.058802545,0.149523675,-0.987008095,0.175029099,0.123195827,-0.073676229,0.179174706,-0.091508031,0.181496456,-0.150086513,-0.059506224,0.074759675
-0.058802545,0.149523675,-0.987008095,0.175029099,0.123195827,-0.073676229,0.179174706,-0.091508031,0.181496456,-0.150086513,-0.059506224,0.074759675
-0.064962037,0.132409066,-0.989064097,-0.026544556,0.131826669,0.037525952,0.184267551,-0.141590685,-0.062049098,-0.132799051,-0.065586108,0.076316193
-0.064962037,0.132409066,-0.989064097,-0.026544556,0.131826669,0.037525952,0.184267551,-0.141590685,-0.062049098,-0.132799051,-0.065586108,0.076316193
-0.064962037,0.132409066,-0.989064097,-0.026544556,0.131826669,0.037525952,0.184267551,-0.141590685,-0.062049098,-0.132799051,-0.065586108,0.076316193
-0.064962037,0.132409066,-0.989064097,-0.026544556,0.131826669,0.037525952,0.184267551,-0.141590685,-0.062049098,-0.132799051,-0.065586108,0.076316193
-0.064962037,0.132409066,-0.989064097,-0.026544556,0.131826669,0.037525952,0.184267551,-0.141590685,-0.062049098,-0.132799051,-0.065586108,0.076316193
-0.064962037,0.132409066,-0.989064097,-0.026544556,0.131826669,0.037525952,0.184267551,-0.141590685,-0.062049098,-0.132799051,-0.065586108,0.076316193
-0.064962037,0.132409066,-0.989064097,-0.026544556,0.131826669,0.037525952,0.184267551,-0.141590685,-0.062049098,-0.132799051,-0.065586108,0.076316193
-0.064962037,0.132409066,-0.989064097,-0.026544556,0.131826669,0.037525952,0.184267551,-0.141590685,-0.062049098,-0.132799051,-0.065586108,0.076316193
-0.064962037,0.132409066,-0.989064097,-0.026544556,0.131826669,0.037525952,0.184267551,-0.141590685,-0.062049098,-0.132799051,-0.065586108,0.076316193
-0.064962037,0.132409066,-0.989064097,-0.026544556,0.131826669,0.037525952,0.184267551,-0.141590685,-0.062049098,-0.132799051,-0.065586108,0.076316193
-0.064962037,0.132409066,-0.989064097,-0.026544556,0.131826669,0.037525952,0.184267551,-0.141590685,-0.062049098,-0.132799051,-0.065586108,0.076316193
-0.064962037,0.132409066,-0.989064097,-0.026544556,0.131826669,0.037525952,0.184267551,-0.141590685,-0.062049098,-0.132799051,-0.065586108,0.076316193
-0.064962037,0.132409066,-0.989064097,-0.026544556,0.131826669,0.037525952,0.184267551,-0.141590685,-0.062049098,-0.132799051,-0.065586108,0.076316193
-0.064962037,0.132409066,-0.989064097,-0.026544556,0.131826669,0.037525952,0.184267551,-0.141590685,-0.062049098,-0.132799051,-0.065586108,0.076316193
-0.064962037,0.132409066,-0.989064097,-0.026544556,0.131826669,0.037525952,0.184267551,-0.141590685,-0.062049098,-0.132799051,-0.065586108,0.076316193
-0.064962037,0.132409066,-0.989064097,-0.026544556,0.131826669,0.037525952,0.184267551,-0.141590685,-0.062049098,-0.132799051,-0.065586108,0.076316193
-0.064962037,0.132409066,-0.989064097,-0.026544556,0.131826669,0.037525952,0.184267551,-0.141590685,-0.062049098,-0.132799051,-0.065586108,0.076316193
-0.062297013,0.135807335,-0.988774717,-0.054279801,0.077845514,0.001775146,-0.03100949,0.055396318,-0.025869042,-0.136228308,-0.062921084,0.073986673
-0.062297013,0.135807335,-0.988774717,-0.054279801,0.077845514,0.001775146,-0.03100949,0.055396318,-0.025869042,-0.136228308,-0.062921084,0.073986673
-0.062297013,0.135807335,-0.988774717,-0.054279801,0.077845514,0.001775146,-0.03100949,0.055396318,-0.025869042,-0.136228308,-0.062921084,0.073986673
-0.062297013,0.135807335,-0.988774717,-0.054279801,0.077845514,0.001775146,-0.03100949,0.055396318,-0.025869042,-0.136228308,-0.062921084,0.073986673
-0.062297013,0.135807335,-0.988774717,-0.054279801,0.077845514,0.001775146,-0.03100949,0.055396318,-0.025869042,-0.136228308,-0.062921084,0.073986673
-0.064002827,0.137091458,-0.988488555,-0.010261342,0.020271689,0.017251313,-0.044963028,-0.00024989,0.007252,-0.137524555,-0.064657917,0.074678293
-0.064002827,0.137091458,-0.988488555,-0.010261342,0.020271689,0.017251313,-0.044963028,-0.00024989,0.007252,-0.137524555,-0.064657917,0.074678293
-0.064002827,0.137091458,-0.988488555,-0.010261342,0.020271689,0.017251313,-0.044963028,-0.00024989,0.007252,-0.137524555,-0.064657917,0.074678293
-0.064002827,0.137091458,-0.988488555,-0.010261342,0.020271689,0.017251313,-0.044963028,-0.00024989,0.007252,-0.137524555,-0.064657917,0.074678293
-0.064002827,0.137091458,-0.988488555,-0.010261342,0.020271689,0.017251313,-0.044963028,-0.00024989,0.007252,-0.137524555,-0.064657917,0.074678293
-0.064002827,0.137091458,-0.988488555,-0.010261342,0.020271689,0.017251313,-0.044963028,-0.00024989,0.007252,-0.137524555,-0.064657917,0.074678293
-0.064002827,0.137091458,-0.988488555,-0.010261342,0.020271689,0.017251313,-0.044963028,-0.00024989,0.007252,-0.137524555,-0.064657917,0.074678293
-0.064002827,0.137091458,-0.988488555,-0.010261342,0.020271689,0.017251313,-0.044963028,-0.00024989,0.007252,-0.137524555,-0.064657917,0.074678293
-0.064002827,0.137091458,-0.988488555,-0.010261342,0.020271689,0.017251313,-0.044963028,-0.00024989,0.007252,-0.137524555,-0.064657917,0.074678293
-0.064209126,0.137377396,-0.988435447,0.012543254,0.008358479,0.016694665,-0.047935329,0.013075648,-0.002390826,-0.137813218,-0.064869216,0.073816539
-0.064209126,0.137377396,-0.988435447,0.012543254,0.008358479,0.016694665,-0.047935329,0.013075648,-0.002390826,-0.137813218,-0.064869216,0.073816539
-0.064209126,0.137377396,-0.988435447,0.012543254,0.008358479,0.016694665,-0.047935329,0.013075648,-0.002390826,-0.137813218,-0.064869216,0.073816539
-0.064209126,0.137377396,-0.988435447,0.012543254,0.008358479,0.016694665,-0.047935329,0.013075648,-0.002390826,-0.137813218,-0.064869216,0.073816539
-0.064209126,0.137377396,-0.988435447,0.012543254,0.008358479,0.016694665,-0.047935329,0.013075648,-0.002390826,-0.137813218,-0.064869216,0.073816539
-0.064209126,0.137377396,-0.988435447,0.012543254,0.008358479,0.016694665,-0.047935329,0.013075648,-0.002390826,-0.137813218,-0.064869216,0.073816539
-0.064209126,0.137377396,-0.988435447,0.012543254,0.008358479,0.016694665,-0.047935329,0.013075648,-0.002390826,-0.137813218,-0.064869216,0.073816539
-0.064209126,0.137377396,-0.988435447,0.012543254,0.008358479,0.016694665,-0.047935329,0.013075648,-0.002390826,-0.137813218,-0.064869216,0.073816539
-0.064209126,0.137377396,-0.988435447,0.012543254,0.008358479,0.016694665,-0.047935329,0.013075648,-0.002390826,-0.137813218,-0.064869216,0.073816539
-0.064209126,0.137377396,-0.988435447,0.012543254,0.008358479,0.016694665,-0.047935329,0.013075648,-0.002390826,-0.137813218,-0.064869216,0.073816539
-0.064209126,0.137377396,-0.988435447,0.012543254,0.008358479,0.016694665,-0.047935329,0.013075648,-0.002390826,-0.137813218,-0.064869216,0.073816539
-0.064209126,0.137377396,-0.988435447,0.012543254,0.008358479,0.016694665,-0.047935329,0.013075648,-0.002390826,-0.137813218,-0.064869216,0.073816539
-0.064209126,0.137377396,-0.988435447,0.012543254,0.008358479,0.016694665,-0.047935329,0.013075648,-0.002390826,-0.137813218,-0.064869216,0.073816539