gravityX,gravityY,gravityZ,accelX,accelY,accelZ,rotRateX,rotRatY,rotRateZ,attPitch,attRoll,attYaw
-0.038025163,0.186512098,-0.981716514,-0.021606173,-0.047977597,-0.029636025,-0.157154247,0.220479876,0.049726382,-0.18761074,-0.03871399,-0.004406277
-0.038025163,0.186512098,-0.981716514,-0.021606173,-0.047977597,-0.029636025,-0.157154247,0.220479876,0.049726382,-0.18761074,-0.03871399,-0.004406277
-0.038025163,0.186512098,-0.981716514,-0.021606173,-0.047977597,-0.029636025,-0.157154247,0.220479876,0.049726382,-0.18761074,-0.03871399,-0.004406277
-0.038025163,0.186512098,-0.981716514,-0.021606173,-0.047977597,-0.029636025,-0.157154247,0.220479876,0.049726382,-0.18761074,-0.03871399,-0.004406277
-0.038025163,0.186512098,-0.981716514,-0.021606173,-0.047977597,-0.029636025,-0.157154247,0.220479876,0.049726382,-0.18761074,-0.03871399,-0.004406277
-0.038025163,0.186512098,-0.981716514,-0.021606173,-0.047977597,-0.029636025,-0.157154247,0.220479876,0.049726382,-0.18761074,-0.03871399,-0.004406277
-0.029962974,0.192872673,-0.980766237,0.019693822,-0.050248817,0.01488483,-0.165564552,0.168978199,0.02240267,-0.194088955,-0.030541077,-0.002969744
-0.029962974,0.192872673,-0.980766237,0.019693822,-0.050248817,0.01488483,-0.165564552,0.168978199,0.02240267,-0.194088955,-0.030541077,-0.002969744
-0.029962974,0.192872673,-0.980766237,0.019693822,-0.050248817,0.01488483,-0.165564552,0.168978199,0.02240267,-0.194088955,-0.030541077,-0.002969744
-0.029962974,0.192872673,-0.980766237,0.019693822,-0.050248817,0.01488483,-0.165564552,0.168978199,0.02240267,-0.194088955,-0.030541077,-0.002969744
-0.029962974,0.192872673,-0.980766237,0.019693822,-0.050248817,0.01488483,-0.165564552,0.168978199,0.02240267,-0.194088955,-0.030541077,-0.002969744
-0.029962974,0.192872673,-0.980766237,0.019693822,-0.050248817,0.01488483,-0.165564552,0.168978199,0.02240267,-0.194088955,-0.030541077,-0.002969744
-0.029962974,0.192872673,-0.980766237,0.019693822,-0.050248817,0.01488483,-0.165564552,0.168978199,0.02240267,-0.194088955,-0.030541077,-0.002969744
-0.029962974,0.192872673,-0.980766237,0.019693822,-0.050248817,0.01488483,-0.165564552,0.168978199,0.02240267,-0.194088955,-0.030541077,-0.002969744
-0.029962974,0.192872673,-0.980766237,0.019693822,-0.050248817,0.01488483,-0.165564552,0.168978199,0.02240267,-0.194088955,-0.030541077,-0.002969744
-0.029962974,0.192872673,-0.980766237,0.019693822,-0.050248817,0.01488483,-0.165564552,0.168978199,0.02240267,-0.194088955,-0.030541077,-0.002969744
-0.029962974,0.192872673,-0.980766237,0.019693822,-0.050248817,0.01488483,-0.165564552,0.168978199,0.02240267,-0.194088955,-0.030541077,-0.002969744
-0.029962974,0.192872673,-0.980766237,0.019693822,-0.050248817,0.01488483,-0.165564552,0.168978199,0.02240267,-0.194088955,-0.030541077,-0.002969744
-0.029962974,0.192872673,-0.980766237,0.019693822,-0.050248817,0.01488483,-0.165564552,0.168978199,0.02240267,-0.194088955,-0.030541077,-0.002969744
-0.029962974,0.192872673,-0.980766237,0.019693822,-0.050248817,0.01488483,-0.165564552,0.168978199,0.02240267,-0.194088955,-0.030541077,-0.002969744
-0.029962974,0.192872673,-0.980766237,0.019693822,-0.050248817,0.01488483,-0.165564552,0.168978199,0.02240267,-0.194088955,-0.030541077,-0.002969744
-0.029962974,0.192872673,-0.980766237,0.019693822,-0.050248817,0.01488483,-0.165564552,0.168978199,0.02240267,-0.194088955,-0.030541077,-0.002969744
-0.029962974,0.192872673,-0.980766237,0.019693822,-0.050248817,0.01488483,-0.165564552,0.168978199,0.02240267,-0.194088955,-0.030541077,-0.002969744
-0.029962974,0.192872673,-0.980766237,0.019693822,-0.050248817,0.01488483,-0.165564552,0.168978199,0.02240267,-0.194088955,-0.030541077,-0.002969744
-0.029962974,0.192872673,-0.980766237,0.019693822,-0.050248817,0.01488483,-0.165564552,0.168978199,0.02240267,-0.194088955,-0.030541077,-0.002969744
-0.029962974,0.192872673,-0.980766237,0.019693822,-0.050248817,0.01488483,-0.165564552,0.168978199,0.02240267,-0.194088955,-0.030541077,-0.002969744
-0.04417453,0.15736568,-0.986551881,0.022995364,0.010984421,0.009638429,-0.332504183,0.205595523,0.001014079,-0.158022519,-0.044746801,-0.007212691
-0.04417453,0.15736568,-0.986551881,0.022995364,0.010984421,0.009638429,-0.332504183,0.205595523,0.001014079,-0.158022519,-0.044746801,-0.007212691
-0.04417453,0.15736568,-0.986551881,0.022995364,0.010984421,0.009638429,-0.332504183,0.205595523,0.001014079,-0.158022519,-0.044746801,-0.007212691
-0.04417453,0.15736568,-0.986551881,0.022995364,0.010984421,0.009638429,-0.332504183,0.205595523,0.001014079,-0.158022519,-0.044746801,-0.007212691
-0.04417453,0.15736568,-0.986551881,0.022995364,0.010984421,0.009638429,-0.332504183,0.205595523,0.001014079,-0.158022519,-0.044746801,-0.007212691
-0.04417453,0.15736568,-0.986551881,0.022995364,0.010984421,0.009638429,-0.332504183,0.205595523,0.001014079,-0.158022519,-0.044746801,-0.007212691
-0.04417453,0.15736568,-0.986551881,0.022995364,0.010984421,0.009638429,-0.332504183,0.205595523,0.001014079,-0.158022519,-0.044746801,-0.007212691
-0.04417453,0.15736568,-0.986551881,0.022995364,0.010984421,0.009638429,-0.332504183,0.205595523,0.001014079,-0.158022519,-0.044746801,-0.007212691
-0.04417453,0.15736568,-0.986551881,0.022995364,0.010984421,0.009638429,-0.332504183,0.205595523,0.001014079,-0.158022519,-0.044746801,-0.007212691
-0.04417453,0.15736568,-0.986551881,0.022995364,0.010984421,0.009638429,-0.332504183,0.205595523,0.001014079,-0.158022519,-0.044746801,-0.007212691
-0.04417453,0.15736568,-0.986551881,0.022995364,0.010984421,0.009638429,-0.332504183,0.205595523,0.001014079,-0.158022519,-0.044746801,-0.007212691
-0.04417453,0.15736568,-0.986551881,0.022995364,0.010984421,0.009638429,-0.332504183,0.205595523,0.001014079,-0.158022519,-0.044746801,-0.007212691
-0.04417453,0.15736568,-0.986551881,0.022995364,0.010984421,0.009638429,-0.332504183,0.205595523,0.001014079,-0.158022519,-0.044746801,-0.007212691
-0.04417453,0.15736568,-0.986551881,0.022995364,0.010984421,0.009638429,-0.332504183,0.205595523,0.001014079,-0.158022519,-0.044746801,-0.007212691
-0.04417453,0.15736568,-0.986551881,0.022995364,0.010984421,0.009638429,-0.332504183,0.205595523,0.001014079,-0.158022519,-0.044746801,-0.007212691
-0.023610448,0.158359587,-0.987099171,-0.011561044,0.006893009,-0.04350996,-0.252072275,0.257920504,0.033684675,-0.15902905,-0.023914463,-0.004646008
-0.023610448,0.158359587,-0.987099171,-0.011561044,0.006893009,-0.04350996,-0.252072275,0.257920504,0.033684675,-0.15902905,-0.023914463,-0.004646008
-0.023610448,0.158359587,-0.987099171,-0.011561044,0.006893009,-0.04350996,-0.252072275,0.257920504,0.033684675,-0.15902905,-0.023914463,-0.004646008
-0.023610448,0.158359587,-0.987099171,-0.011561044,0.006893009,-0.04350996,-0.252072275,0.257920504,0.033684675,-0.15902905,-0.023914463,-0.004646008
-0.023610448,0.158359587,-0.987099171,-0.011561044,0.006893009,-0.04350996,-0.252072275,0.257920504,0.033684675,-0.15902905,-0.023914463,-0.004646008
-0.023610448,0.158359587,-0.987099171,-0.011561044,0.006893009,-0.04350996,-0.252072275,0.257920504,0.033684675,-0.15902905,-0.023914463,-0.004646008
-0.023610448,0.158359587,-0.987099171,-0.011561044,0.006893009,-0.04350996,-0.252072275,0.257920504,0.033684675,-0.15902905,-0.023914463,-0.004646008
-0.023610448,0.158359587,-0.987099171,-0.011561044,0.006893009,-0.04350996,-0.252072275,0.257920504,0.033684675,-0.15902905,-0.023914463,-0.004646008
-0.023610448,0.158359587,-0.987099171,-0.011561044,0.006893009,-0.04350996,-0.252072275,0.257920504,0.033684675,-0.15902905,-0.023914463,-0.004646008
-0.023610448,0.158359587,-0.987099171,-0.011561044,0.006893009,-0.04350996,-0.252072275,0.257920504,0.033684675,-0.15902905,-0.023914463,-0.004646008
-0.023610448,0.158359587,-0.987099171,-0.011561044,0.006893009,-0.04350996,-0.252072275,0.257920504,0.033684675,-0.15902905,-0.023914463,-0.004646008
-0.023610448,0.158359587,-0.987099171,-0.011561044,0.006893009,-0.04350996,-0.252072275,0.257920504,0.033684675,-0.15902905,-0.023914463,-0.004646008
-0.023610448,0.158359587,-0.987099171,-0.011561044,0.006893009,-0.04350996,-0.252072275,0.257920504,0.033684675,-0.15902905,-0.023914463,-0.004646008
-0.023610448,0.158359587,-0.987099171,-0.011561044,0.006893009,-0.04350996,-0.252072275,0.257920504,0.033684675,-0.15902905,-0.023914463,-0.004646008
-0.023610448,0.158359587,-0.987099171,-0.011561044,0.006893009,-0.04350996,-0.252072275,0.257920504,0.033684675,-0.15902905,-0.023914463,-0.004646008
-0.023610448,0.158359587,-0.987099171,-0.011561044,0.006893009,-0.04350996,-0.252072275,0.257920504,0.033684675,-0.15902905,-0.023914463,-0.004646008
-0.023610448,0.158359587,-0.987099171,-0.011561044,0.006893009,-0.04350996,-0.252072275,0.257920504,0.033684675,-0.15902905,-0.023914463,-0.004646008
-0.023610448,0.158359587,-0.987099171,-0.011561044,0.006893009,-0.04350996,-0.252072275,0.257920504,0.033684675,-0.15902905,-0.023914463,-0.004646008
-0.023610448,0.158359587,-0.987099171,-0.011561044,0.006893009,-0.04350996,-0.252072275,0.257920504,0.033684675,-0.15902905,-0.023914463,-0.004646008
-0.023610448,0.158359587,-0.987099171,-0.011561044,0.006893009,-0.04350996,-0.252072275,0.257920504,0.033684675,-0.15902905,-0.023914463,-0.004646008
-0.023610448,0.158359587,-0.987099171,-0.011561044,0.006893009,-0.04350996,-0.252072275,0.257920504,0.033684675,-0.15902905,-0.023914463,-0.004646008
-0.023610448,0.158359587,-0.987099171,-0.011561044,0.006893009,-0.04350996,-0.252072275,0.257920504,0.033684675,-0.15902905,-0.023914463,-0.004646008
-0.023610448,0.158359587,-0.987099171,-0.011561044,0.006893009,-0.04350996,-0.252072275,0.257920504,0.033684675,-0.15902905,-0.023914463,-0.004646008
-0.005251504,0.166954115,-0.985950708,-0.139615431,0.034995899,-0.183131993,-0.42223081,0.882460117,-0.182798788,-0.167739612,-0.005326285,-0.006973757
-0.005251504,0.166954115,-0.985950708,-0.139615431,0.034995899,-0.183131993,-0.42223081,0.882460117,-0.182798788,-0.167739612,-0.005326285,-0.006973757
-0.005251504,0.166954115,-0.985950708,-0.139615431,0.034995899,-0.183131993,-0.42223081,0.882460117,-0.182798788,-0.167739612,-0.005326285,-0.006973757
-0.005251504,0.166954115,-0.985950708,-0.139615431,0.034995899,-0.183131993,-0.42223081,0.882460117,-0.182798788,-0.167739612,-0.005326285,-0.006973757
-0.005251504,0.166954115,-0.985950708,-0.139615431,0.034995899,-0.183131993,-0.42223081,0.882460117,-0.182798788,-0.167739612,-0.005326285,-0.006973757
-0.005251504,0.166954115,-0.985950708,-0.139615431,0.034995899,-0.183131993,-0.42223081,0.882460117,-0.182798788,-0.167739612,-0.005326285,-0.006973757
-0.005251504,0.166954115,-0.985950708,-0.139615431,0.034995899,-0.183131993,-0.42223081,0.882460117,-0.182798788,-0.167739612,-0.005326285,-0.006973757
-0.005251504,0.166954115,-0.985950708,-0.139615431,0.034995899,-0.183131993,-0.42223081,0.882460117,-0.182798788,-0.167739612,-0.005326285,-0.006973757
-0.005251504,0.166954115,-0.985950708,-0.139615431,0.034995899,-0.183131993,-0.42223081,0.882460117,-0.182798788,-0.167739612,-0.005326285,-0.006973757
-0.005251504,0.166954115,-0.985950708,-0.139615431,0.034995899,-0.183131993,-0.42223081,0.882460117,-0.182798788,-0.167739612,-0.005326285,-0.006973757
-0.005251504,0.166954115,-0.985950708,-0.139615431,0.034995899,-0.183131993,-0.42223081,0.882460117,-0.182798788,-0.167739612,-0.005326285,-0.006973757
-0.005251504,0.166954115,-0.985950708,-0.139615431,0.034995899,-0.183131993,-0.42223081,0.882460117,-0.182798788,-0.167739612,-0.005326285,-0.006973757
-0.005251504,0.166954115,-0.985950708,-0.139615431,0.034995899,-0.183131993,-0.42223081,0.882460117,-0.182798788,-0.167739612,-0.005326285,-0.006973757
-0.005251504,0.166954115,-0.985950708,-0.139615431,0.034995899,-0.183131993,-0.42223081,0.882460117,-0.182798788,-0.167739612,-0.005326285,-0.006973757
-0.005251504,0.166954115,-0.985950708,-0.139615431,0.034995899,-0.183131993,-0.42223081,0.882460117,-0.182798788,-0.167739612,-0.005326285,-0.006973757
-0.005251504,0.166954115,-0.985950708,-0.139615431,0.034995899,-0.183131993,-0.42223081,0.882460117,-0.182798788,-0.167739612,-0.005326285,-0.006973757
-0.005251504,0.166954115,-0.985950708,-0.139615431,0.034995899,-0.183131993,-0.42223081,0.882460117,-0.182798788,-0.167739612,-0.005326285,-0.006973757
-0.005251504,0.166954115,-0.985950708,-0.139615431,0.034995899,-0.183131993,-0.42223081,0.882460117,-0.182798788,-0.167739612,-0.005326285,-0.006973757
0.040024541,0.170660704,-0.984516621,-0.147110701,-0.009650007,-0.453395367,0.767414272,1.673515797,-0.580460846,-0.171500174,0.04063163,-0.025654844
0.040024541,0.170660704,-0.984516621,-0.147110701,-0.009650007,-0.453395367,0.767414272,1.673515797,-0.580460846,-0.171500174,0.04063163,-0.025654844
0.040024541,0.170660704,-0.984516621,-0.147110701,-0.009650007,-0.453395367,0.767414272,1.673515797,-0.580460846,-0.171500174,0.04063163,-0.025654844
0.040024541,0.170660704,-0.984516621,-0.147110701,-0.009650007,-0.453395367,0.767414272,1.673515797,-0.580460846,-0.171500174,0.04063163,-0.025654844
0.040024541,0.170660704,-0.984516621,-0.147110701,-0.009650007,-0.453395367,0.767414272,1.673515797,-0.580460846,-0.171500174,0.04063163,-0.025654844
0.040024541,0.170660704,-0.984516621,-0.147110701,-0.009650007,-0.453395367,0.767414272,1.673515797,-0.580460846,-0.171500174,0.04063163,-0.025654844
0.040024541,0.170660704,-0.984516621,-0.147110701,-0.009650007,-0.453395367,0.767414272,1.673515797,-0.580460846,-0.171500174,0.04063163,-0.025654844
0.040024541,0.170660704,-0.984516621,-0.147110701,-0.009650007,-0.453395367,0.767414272,1.673515797,-0.580460846,-0.171500174,0.04063163,-0.025654844
0.040024541,0.170660704,-0.984516621,-0.147110701,-0.009650007,-0.453395367,0.767414272,1.673515797,-0.580460846,-0.171500174,0.04063163,-0.025654844
0.040024541,0.170660704,-0.984516621,-0.147110701,-0.009650007,-0.453395367,0.767414272,1.673515797,-0.580460846,-0.171500174,0.04063163,-0.025654844
0.040024541,0.170660704,-0.984516621,-0.147110701,-0.009650007,-0.453395367,0.767414272,1.673515797,-0.580460846,-0.171500174,0.04063163,-0.025654844
0.040024541,0.170660704,-0.984516621,-0.147110701,-0.009650007,-0.453395367,0.767414272,1.673515797,-0.580460846,-0.171500174,0.04063163,-0.025654844
0.040024541,0.170660704,-0.984516621,-0.147110701,-0.009650007,-0.453395367,0.767414272,1.673515797,-0.580460846,-0.171500174,0.04063163,-0.025654844
0.040024541,0.170660704,-0.984516621,-0.147110701,-0.009650007,-0.453395367,0.767414272,1.673515797,-0.580460846,-0.171500174,0.04063163,-0.025654844
0.040024541,0.170660704,-0.984516621,-0.147110701,-0.009650007,-0.453395367,0.767414272,1.673515797,-0.580460846,-0.171500174,0.04063163,-0.025654844
0.040024541,0.170660704,-0.984516621,-0.147110701,-0.009650007,-0.453395367,0.767414272,1.673515797,-0.580460846,-0.171500174,0.04063163,-0.025654844
0.040024541,0.170660704,-0.984516621,-0.147110701,-0.009650007,-0.453395367,0.767414272,1.673515797,-0.580460846,-0.171500174,0.04063163,-0.025654844
0.040024541,0.170660704,-0.984516621,-0.147110701,-0.009650007,-0.453395367,0.767414272,1.673515797,-0.580460846,-0.171500174,0.04063163,-0.025654844
0.040024541,0.170660704,-0.984516621,-0.147110701,-0.009650007,-0.453395367,0.767414272,1.673515797,-0.580460846,-0.171500174,0.04063163,-0.025654844
0.040024541,0.170660704,-0.984516621,-0.147110701,-0.009650007,-0.453395367,0.767414272,1.673515797,-0.580460846,-0.171500174,0.04063163,-0.025654844
0.040024541,0.170660704,-0.984516621,-0.147110701,-0.009650007,-0.453395367,0.767414272,1.673515797,-0.580460846,-0.171500174,0.04063163,-0.025654844
0.040024541,0.170660704,-0.984516621,-0.147110701,-0.009650007,-0.453395367,0.767414272,1.673515797,-0.580460846,-0.171500174,0.04063163,-0.025654844
0.040024541,0.170660704,-0.984516621,-0.147110701,-0.009650007,-0.453395367,0.767414272,1.673515797,-0.580460846,-0.171500174,0.04063163,-0.025654844
0.1132496,0.049696095,-0.992322922,-0.151320279,0.207536504,-0.483415604,5.830036163,2.032763958,-1.332997799,-0.049716575,0.113634105,-0.074085317
0.1132496,0.049696095,-0.992322922,-0.151320279,0.207536504,-0.483415604,5.830036163,2.032763958,-1.332997799,-0.049716575,0.113634105,-0.074085317
0.1132496,0.049696095,-0.992322922,-0.151320279,0.207536504,-0.483415604,5.830036163,2.032763958,-1.332997799,-0.049716575,0.113634105,-0.074085317
0.1132496,0.049696095,-0.992322922,-0.151320279,0.207536504,-0.483415604,5.830036163,2.032763958,-1.332997799,-0.049716575,0.113634105,-0.074085317
0.1132496,0.049696095,-0.992322922,-0.151320279,0.207536504,-0.483415604,5.830036163,2.032763958,-1.332997799,-0.049716575,0.113634105,-0.074085317
0.1132496,0.049696095,-0.992322922,-0.151320279,0.207536504,-0.483415604,5.830036163,2.032763958,-1.332997799,-0.049716575,0.113634105,-0.074085317
0.1132496,0.049696095,-0.992322922,-0.151320279,0.207536504,-0.483415604,5.830036163,2.032763958,-1.332997799,-0.049716575,0.113634105,-0.074085317
0.1132496,0.049696095,-0.992322922,-0.151320279,0.207536504,-0.483415604,5.830036163,2.032763958,-1.332997799,-0.049716575,0.113634105,-0.074085317
0.1132496,0.049696095,-0.992322922,-0.151320279,0.207536504,-0.483415604,5.830036163,2.032763958,-1.332997799,-0.049716575,0.113634105,-0.074085317
0.1132496,0.049696095,-0.992322922,-0.151320279,0.207536504,-0.483415604,5.830036163,2.032763958,-1.332997799,-0.049716575,0.113634105,-0.074085317
0.1132496,0.049696095,-0.992322922,-0.151320279,0.207536504,-0.483415604,5.830036163,2.032763958,-1.332997799,-0.049716575,0.113634105,-0.074085317
0.1132496,0.049696095,-0.992322922,-0.151320279,0.207536504,-0.483415604,5.830036163,2.032763958,-1.332997799,-0.049716575,0.113634105,-0.074085317
0.1132496,0.049696095,-0.992322922,-0.151320279,0.207536504,-0.483415604,5.830036163,2.032763958,-1.332997799,-0.049716575,0.113634105,-0.074085317
0.202279001,-0.231885627,-0.951479018,-0.193581492,0.070844367,-0.314115465,8.665538788,2.055766821,-3.016982794,0.234015704,0.2094756,-0.206146504
0.202279001,-0.231885627,-0.951479018,-0.193581492,0.070844367,-0.314115465,8.665538788,2.055766821,-3.016982794,0.234015704,0.2094756,-0.206146504
0.202279001,-0.231885627,-0.951479018,-0.193581492,0.070844367,-0.314115465,8.665538788,2.055766821,-3.016982794,0.234015704,0.2094756,-0.206146504
0.202279001,-0.231885627,-0.951479018,-0.193581492,0.070844367,-0.314115465,8.665538788,2.055766821,-3.016982794,0.234015704,0.2094756,-0.206146504
0.202279001,-0.231885627,-0.951479018,-0.193581492,0.070844367,-0.314115465,8.665538788,2.055766821,-3.016982794,0.234015704,0.2094756,-0.206146504
0.202279001,-0.231885627,-0.951479018,-0.193581492,0.070844367,-0.314115465,8.665538788,2.055766821,-3.016982794,0.234015704,0.2094756,-0.206146504
0.202279001,-0.231885627,-0.951479018,-0.193581492,0.070844367,-0.314115465,8.665538788,2.055766821,-3.016982794,0.234015704,0.2094756,-0.206146504
0.202279001,-0.231885627,-0.951479018,-0.193581492,0.070844367,-0.314115465,8.665538788,2.055766821,-3.016982794,0.234015704,0.2094756,-0.206146504
0.202279001,-0.231885627,-0.951479018,-0.193581492,0.070844367,-0.314115465,8.665538788,2.055766821,-3.016982794,0.234015704,0.2094756,-0.206146504
0.202279001,-0.231885627,-0.951479018,-0.193581492,0.070844367,-0.314115465,8.665538788,2.055766821,-3.016982794,0.234015704,0.2094756,-0.206146504
0.202279001,-0.231885627,-0.951479018,-0.193581492,0.070844367,-0.314115465,8.665538788,2.055766821,-3.016982794,0.234015704,0.2094756,-0.206146504
0.202279001,-0.231885627,-0.951479018,-0.193581492,0.070844367,-0.314115465,8.665538788,2.055766821,-3.016982794,0.234015704,0.2094756,-0.206146504
0.471213579,-0.647460699,-0.598959506,-0.217780501,-0.252914429,0.249853551,7.051578045,0.381513625,-5.322340965,0.704247698,0.666590927,-0.888722296
0.471213579,-0.647460699,-0.598959506,-0.217780501,-0.252914429,0.249853551,7.051578045,0.381513625,-5.322340965,0.704247698,0.666590927,-0.888722296
0.471213579,-0.647460699,-0.598959506,-0.217780501,-0.252914429,0.249853551,7.051578045,0.381513625,-5.322340965,0.704247698,0.666590927,-0.888722296
0.602045417,-0.655967951,-0.455244511,-0.271189034,-0.120124578,0.120497286,4.615514755,-1.006701469,-5.065158844,0.715464326,0.92336251,-1.29972727
0.602045417,-0.655967951,-0.455244511,-0.271189034,-0.120124578,0.120497286,4.615514755,-1.006701469,-5.065158844,0.715464326,0.92336251,-1.29972727
0.602045417,-0.655967951,-0.455244511,-0.271189034,-0.120124578,0.120497286,4.615514755,-1.006701469,-5.065158844,0.715464326,0.92336251,-1.29972727
0.700079322,-0.598384142,-0.389647931,-0.371237278,0.05681926,0.063109815,3.477903128,-1.687009692,-4.397895336,0.641482787,1.062917762,-1.605969474
0.700079322,-0.598384142,-0.389647931,-0.371237278,0.05681926,0.063109815,3.477903128,-1.687009692,-4.397895336,0.641482787,1.062917762,-1.605969474
0.700079322,-0.598384142,-0.389647931,-0.371237278,0.05681926,0.063109815,3.477903128,-1.687009692,-4.397895336,0.641482787,1.062917762,-1.605969474
0.757865369,-0.527948558,-0.383289188,-0.394294322,0.179743111,-0.031017542,2.486029148,-2.153093576,-3.499687433,0.556183235,1.10256059,-1.814903271
0.757865369,-0.527948558,-0.383289188,-0.394294322,0.179743111,-0.031017542,2.486029148,-2.153093576,-3.499687433,0.556183235,1.10256059,-1.814903271
0.757865369,-0.527948558,-0.383289188,-0.394294322,0.179743111,-0.031017542,2.486029148,-2.153093576,-3.499687433,0.556183235,1.10256059,-1.814903271
0.783928633,-0.471297562,-0.404146731,-0.371331275,0.304503977,-0.174833,2.219192743,-2.081332922,-2.452097893,0.490761397,1.094794001,-1.974584053
0.783928633,-0.471297562,-0.404146731,-0.371331275,0.304503977,-0.174833,2.219192743,-2.081332922,-2.452097893,0.490761397,1.094794001,-1.974584053
0.783928633,-0.471297562,-0.404146731,-0.371331275,0.304503977,-0.174833,2.219192743,-2.081332922,-2.452097893,0.490761397,1.094794001,-1.974584053
0.783928633,-0.471297562,-0.404146731,-0.371331275,0.304503977,-0.174833,2.219192743,-2.081332922,-2.452097893,0.490761397,1.094794001,-1.974584053
0.789079785,-0.437916279,-0.430792987,-0.28143549,0.16545555,-0.256081641,0.66683495,-1.562806249,-1.227400661,0.453279567,1.071072835,-2.082635718
0.789079785,-0.437916279,-0.430792987,-0.28143549,0.16545555,-0.256081641,0.66683495,-1.562806249,-1.227400661,0.453279567,1.071072835,-2.082635718
0.789079785,-0.437916279,-0.430792987,-0.28143549,0.16545555,-0.256081641,0.66683495,-1.562806249,-1.227400661,0.453279567,1.071072835,-2.082635718
0.789079785,-0.437916279,-0.430792987,-0.28143549,0.16545555,-0.256081641,0.66683495,-1.562806249,-1.227400661,0.453279567,1.071072835,-2.082635718
0.789079785,-0.437916279,-0.430792987,-0.28143549,0.16545555,-0.256081641,0.66683495,-1.562806249,-1.227400661,0.453279567,1.071072835,-2.082635718
0.789079785,-0.437916279,-0.430792987,-0.28143549,0.16545555,-0.256081641,0.66683495,-1.562806249,-1.227400661,0.453279567,1.071072835,-2.082635718
0.789079785,-0.437916279,-0.430792987,-0.28143549,0.16545555,-0.256081641,0.66683495,-1.562806249,-1.227400661,0.453279567,1.071072835,-2.082635718
0.789079785,-0.437916279,-0.430792987,-0.28143549,0.16545555,-0.256081641,0.66683495,-1.562806249,-1.227400661,0.453279567,1.071072835,-2.082635718
0.789079785,-0.437916279,-0.430792987,-0.28143549,0.16545555,-0.256081641,0.66683495,-1.562806249,-1.227400661,0.453279567,1.071072835,-2.082635718
0.789079785,-0.437916279,-0.430792987,-0.28143549,0.16545555,-0.256081641,0.66683495,-1.562806249,-1.227400661,0.453279567,1.071072835,-2.082635718
0.789079785,-0.437916279,-0.430792987,-0.28143549,0.16545555,-0.256081641,0.66683495,-1.562806249,-1.227400661,0.453279567,1.071072835,-2.082635718
0.789079785,-0.437916279,-0.430792987,-0.28143549,0.16545555,-0.256081641,0.66683495,-1.562806249,-1.227400661,0.453279567,1.071072835,-2.082635718
0.789079785,-0.437916279,-0.430792987,-0.28143549,0.16545555,-0.256081641,0.66683495,-1.562806249,-1.227400661,0.453279567,1.071072835,-2.082635718
0.789079785,-0.437916279,-0.430792987,-0.28143549,0.16545555,-0.256081641,0.66683495,-1.562806249,-1.227400661,0.453279567,1.071072835,-2.082635718
0.789079785,-0.437916279,-0.430792987,-0.28143549,0.16545555,-0.256081641,0.66683495,-1.562806249,-1.227400661,0.453279567,1.071072835,-2.082635718
0.789079785,-0.437916279,-0.430792987,-0.28143549,0.16545555,-0.256081641,0.66683495,-1.562806249,-1.227400661,0.453279567,1.071072835,-2.082635718
0.789079785,-0.437916279,-0.430792987,-0.28143549,0.16545555,-0.256081641,0.66683495,-1.562806249,-1.227400661,0.453279567,1.071072835,-2.082635718
0.775076807,-0.436368495,-0.456988513,-0.269568682,1.064985037,-0.744519293,1.461703658,-0.339749813,-0.539025009,0.451558675,1.038055887,-2.10238401
0.775076807,-0.436368495,-0.456988513,-0.269568682,1.064985037,-0.744519293,1.461703658,-0.339749813,-0.539025009,0.451558675,1.038055887,-2.10238401
0.775076807,-0.436368495,-0.456988513,-0.269568682,1.064985037,-0.744519293,1.461703658,-0.339749813,-0.539025009,0.451558675,1.038055887,-2.10238401
0.775076807,-0.436368495,-0.456988513,-0.269568682,1.064985037,-0.744519293,1.461703658,-0.339749813,-0.539025009,0.451558675,1.038055887,-2.10238401
0.775076807,-0.436368495,-0.456988513,-0.269568682,1.064985037,-0.744519293,1.461703658,-0.339749813,-0.539025009,0.451558675,1.038055887,-2.10238401
0.775076807,-0.436368495,-0.456988513,-0.269568682,1.064985037,-0.744519293,1.461703658,-0.339749813,-0.539025009,0.451558675,1.038055887,-2.10238401
0.775076807,-0.436368495,-0.456988513,-0.269568682,1.064985037,-0.744519293,1.461703658,-0.339749813,-0.539025009,0.451558675,1.038055887,-2.10238401
0.775076807,-0.436368495,-0.456988513,-0.269568682,1.064985037,-0.744519293,1.461703658,-0.339749813,-0.539025009,0.451558675,1.038055887,-2.10238401
0.775076807,-0.436368495,-0.456988513,-0.269568682,1.064985037,-0.744519293,1.461703658,-0.339749813,-0.539025009,0.451558675,1.038055887,-2.10238401
0.775076807,-0.436368495,-0.456988513,-0.269568682,1.064985037,-0.744519293,1.461703658,-0.339749813,-0.539025009,0.451558675,1.038055887,-2.10238401
0.796444058,-0.45697099,-0.396048665,-0.073437393,-0.029188991,-0.316949129,1.302175522,0.962454379,-0.395683736,0.474586835,1.109334176,-2.192516111
0.796444058,-0.45697099,-0.396048665,-0.073437393,-0.029188991,-0.316949129,1.302175522,0.962454379,-0.395683736,0.474586835,1.109334176,-2.192516111
0.796444058,-0.45697099,-0.396048665,-0.073437393,-0.029188991,-0.316949129,1.302175522,0.962454379,-0.395683736,0.474586835,1.109334176,-2.192516111
0.796444058,-0.45697099,-0.396048665,-0.073437393,-0.029188991,-0.316949129,1.302175522,0.962454379,-0.395683736,0.474586835,1.109334176,-2.192516111
0.796444058,-0.45697099,-0.396048665,-0.073437393,-0.029188991,-0.316949129,1.302175522,0.962454379,-0.395683736,0.474586835,1.109334176,-2.192516111
0.796444058,-0.45697099,-0.396048665,-0.073437393,-0.029188991,-0.316949129,1.302175522,0.962454379,-0.395683736,0.474586835,1.109334176,-2.192516111
0.796444058,-0.45697099,-0.396048665,-0.073437393,-0.029188991,-0.316949129,1.302175522,0.962454379,-0.395683736,0.474586835,1.109334176,-2.192516111
0.796444058,-0.45697099,-0.396048665,-0.073437393,-0.029188991,-0.316949129,1.302175522,0.962454379,-0.395683736,0.474586835,1.109334176,-2.192516111
0.796444058,-0.45697099,-0.396048665,-0.073437393,-0.029188991,-0.316949129,1.302175522,0.962454379,-0.395683736,0.474586835,1.109334176,-2.192516111
0.796444058,-0.45697099,-0.396048665,-0.073437393,-0.029188991,-0.316949129,1.302175522,0.962454379,-0.395683736,0.474586835,1.109334176,-2.192516111
0.796444058,-0.45697099,-0.396048665,-0.073437393,-0.029188991,-0.316949129,1.302175522,0.962454379,-0.395683736,0.474586835,1.109334176,-2.192516111
0.796444058,-0.45697099,-0.396048665,-0.073437393,-0.029188991,-0.316949129,1.302175522,0.962454379,-0.395683736,0.474586835,1.109334176,-2.192516111
0.796444058,-0.45697099,-0.396048665,-0.073437393,-0.029188991,-0.316949129,1.302175522,0.962454379,-0.395683736,0.474586835,1.109334176,-2.192516111
0.796444058,-0.45697099,-0.396048665,-0.073437393,-0.029188991,-0.316949129,1.302175522,0.962454379,-0.395683736,0.474586835,1.109334176,-2.192516111
0.796444058,-0.45697099,-0.396048665,-0.073437393,-0.029188991,-0.316949129,1.302175522,0.962454379,-0.395683736,0.474586835,1.109334176,-2.192516111
0.796444058,-0.45697099,-0.396048665,-0.073437393,-0.029188991,-0.316949129,1.302175522,0.962454379,-0.395683736,0.474586835,1.109334176,-2.192516111
0.796444058,-0.45697099,-0.396048665,-0.073437393,-0.029188991,-0.316949129,1.302175522,0.962454379,-0.395683736,0.474586835,1.109334176,-2.192516111
0.796444058,-0.45697099,-0.396048665,-0.073437393,-0.029188991,-0.316949129,1.302175522,0.962454379,-0.395683736,0.474586835,1.109334176,-2.192516111
0.796444058,-0.45697099,-0.396048665,-0.073437393,-0.029188991,-0.316949129,1.302175522,0.962454379,-0.395683736,0.474586835,1.109334176,-2.192516111
0.796444058,-0.45697099,-0.396048665,-0.073437393,-0.029188991,-0.316949129,1.302175522,0.962454379,-0.395683736,0.474586835,1.109334176,-2.192516111
0.796444058,-0.45697099,-0.396048665,-0.073437393,-0.029188991,-0.316949129,1.302175522,0.962454379,-0.395683736,0.474586835,1.109334176,-2.192516111
0.802627265,-0.456395477,-0.384047866,0.108932316,-0.019647837,-0.026947975,0.336904109,-0.347682059,-0.41362232,0.473939943,1.124505585,-2.224519712
0.802627265,-0.456395477,-0.384047866,0.108932316,-0.019647837,-0.026947975,0.336904109,-0.347682059,-0.41362232,0.473939943,1.124505585,-2.224519712
0.802627265,-0.456395477,-0.384047866,0.108932316,-0.019647837,-0.026947975,0.336904109,-0.347682059,-0.41362232,0.473939943,1.124505585,-2.224519712
0.802627265,-0.456395477,-0.384047866,0.108932316,-0.019647837,-0.026947975,0.336904109,-0.347682059,-0.41362232,0.473939943,1.124505585,-2.224519712
0.802627265,-0.456395477,-0.384047866,0.108932316,-0.019647837,-0.026947975,0.336904109,-0.347682059,-0.41362232,0.473939943,1.124505585,-2.224519712
0.809909403,-0.455945998,-0.368998766,-0.159931421,0.123259068,-0.186482668,1.025004029,0.461344481,-0.202330455,0.47343482,1.143291081,-2.257608149
0.809909403,-0.455945998,-0.368998766,-0.159931421,0.123259068,-0.186482668,1.025004029,0.461344481,-0.202330455,0.47343482,1.143291081,-2.257608149
0.809909403,-0.455945998,-0.368998766,-0.159931421,0.123259068,-0.186482668,1.025004029,0.461344481,-0.202330455,0.47343482,1.143291081,-2.257608149
0.809909403,-0.455945998,-0.368998766,-0.159931421,0.123259068,-0.186482668,1.025004029,0.461344481,-0.202330455,0.47343482,1.143291081,-2.257608149
0.809909403,-0.455945998,-0.368998766,-0.159931421,0.123259068,-0.186482668,1.025004029,0.461344481,-0.202330455,0.47343482,1.143291081,-2.257608149
0.809909403,-0.455945998,-0.368998766,-0.159931421,0.123259068,-0.186482668,1.025004029,0.461344481,-0.202330455,0.47343482,1.143291081,-2.257608149
0.809909403,-0.455945998,-0.368998766,-0.159931421,0.123259068,-0.186482668,1.025004029,0.461344481,-0.202330455,0.47343482,1.143291081,-2.257608149
0.809909403,-0.455945998,-0.368998766,-0.159931421,0.123259068,-0.186482668,1.025004029,0.461344481,-0.202330455,0.47343482,1.143291081,-2.257608149
0.809909403,-0.455945998,-0.368998766,-0.159931421,0.123259068,-0.186482668,1.025004029,0.461344481,-0.202330455,0.47343482,1.143291081,-2.257608149
0.809909403,-0.455945998,-0.368998766,-0.159931421,0.123259068,-0.186482668,1.025004029,0.461344481,-0.202330455,0.47343482,1.143291081,-2.257608149
0.809909403,-0.455945998,-0.368998766,-0.159931421,0.123259068,-0.186482668,1.025004029,0.461344481,-0.202330455,0.47343482,1.143291081,-2.257608149
0.818203926,-0.45950222,-0.345542967,-0.019880056,-0.103470266,0.011603713,0.166013464,0.087867841,-0.087156475,0.477434678,1.1711988,-2.289693113
0.818203926,-0.45950222,-0.345542967,-0.019880056,-0.103470266,0.011603713,0.166013464,0.087867841,-0.087156475,0.477434678,1.1711988,-2.289693113
0.818203926,-0.45950222,-0.345542967,-0.019880056,-0.103470266,0.011603713,0.166013464,0.087867841,-0.087156475,0.477434678,1.1711988,-2.289693113
0.818203926,-0.45950222,-0.345542967,-0.019880056,-0.103470266,0.011603713,0.166013464,0.087867841,-0.087156475,0.477434678,1.1711988,-2.289693113
0.818203926,-0.45950222,-0.345542967,-0.019880056,-0.103470266,0.011603713,0.166013464,0.087867841,-0.087156475,0.477434678,1.1711988,-2.289693113
0.818203926,-0.45950222,-0.345542967,-0.019880056,-0.103470266,0.011603713,0.166013464,0.087867841,-0.087156475,0.477434678,1.1711988,-2.289693113
0.818203926,-0.45950222,-0.345542967,-0.019880056,-0.103470266,0.011603713,0.166013464,0.087867841,-0.087156475,0.477434678,1.1711988,-2.289693113
0.818203926,-0.45950222,-0.345542967,-0.019880056,-0.103470266,0.011603713,0.166013464,0.087867841,-0.087156475,0.477434678,1.1711988,-2.289693113
0.818203926,-0.45950222,-0.345542967,-0.019880056,-0.103470266,0.011603713,0.166013464,0.087867841,-0.087156475,0.477434678,1.1711988,-2.289693113
0.818203926,-0.45950222,-0.345542967,-0.019880056,-0.103470266,0.011603713,0.166013464,0.087867841,-0.087156475,0.477434678,1.1711988,-2.289693113
0.818203926,-0.45950222,-0.345542967,-0.019880056,-0.103470266,0.011603713,0.166013464,0.087867841,-0.087156475,0.477434678,1.1711988,-2.289693113
0.818203926,-0.45950222,-0.345542967,-0.019880056,-0.103470266,0.011603713,0.166013464,0.087867841,-0.087156475,0.477434678,1.1711988,-2.289693113
0.818203926,-0.45950222,-0.345542967,-0.019880056,-0.103470266,0.011603713,0.166013464,0.087867841,-0.087156475,0.477434678,1.1711988,-2.289693113
0.818203926,-0.45950222,-0.345542967,-0.019880056,-0.103470266,0.011603713,0.166013464,0.087867841,-0.087156475,0.477434678,1.1711988,-2.289693113
0.818203926,-0.45950222,-0.345542967,-0.019880056,-0.103470266,0.011603713,0.166013464,0.087867841,-0.087156475,0.477434678,1.1711988,-2.289693113
0.818203926,-0.45950222,-0.345542967,-0.019880056,-0.103470266,0.011603713,0.166013464,0.087867841,-0.087156475,0.477434678,1.1711988,-2.289693113
0.818203926,-0.45950222,-0.345542967,-0.019880056,-0.103470266,0.011603713,0.166013464,0.087867841,-0.087156475,0.477434678,1.1711988,-2.289693113
0.818203926,-0.45950222,-0.345542967,-0.019880056,-0.103470266,0.011603713,0.166013464,0.087867841,-0.087156475,0.477434678,1.1711988,-2.289693113
0.818203926,-0.45950222,-0.345542967,-0.019880056,-0.103470266,0.011603713,0.166013464,0.087867841,-0.087156475,0.477434678,1.1711988,-2.289693113
0.818203926,-0.45950222,-0.345542967,-0.019880056,-0.103470266,0.011603713,0.166013464,0.087867841,-0.087156475,0.477434678,1.1711988,-2.289693113
0.818203926,-0.45950222,-0.345542967,-0.019880056,-0.103470266,0.011603713,0.166013464,0.087867841,-0.087156475,0.477434678,1.1711988,-2.289693113
0.821142793,-0.45690161,-0.342002213,-0.090476394,-0.08472389,-0.000176787,-0.09746138,0.063833334,0.001061269,0.474508833,1.176151128,-2.298339146
0.821142793,-0.45690161,-0.342002213,-0.090476394,-0.08472389,-0.000176787,-0.09746138,0.063833334,0.001061269,0.474508833,1.176151128,-2.298339146
0.821142793,-0.45690161,-0.342002213,-0.090476394,-0.08472389,-0.000176787,-0.09746138,0.063833334,0.001061269,0.474508833,1.176151128,-2.298339146
0.821142793,-0.45690161,-0.342002213,-0.090476394,-0.08472389,-0.000176787,-0.09746138,0.063833334,0.001061269,0.474508833,1.176151128,-2.298339146
0.821142793,-0.45690161,-0.342002213,-0.090476394,-0.08472389,-0.000176787,-0.09746138,0.063833334,0.001061269,0.474508833,1.176151128,-2.298339146
0.821142793,-0.45690161,-0.342002213,-0.090476394,-0.08472389,-0.000176787,-0.09746138,0.063833334,0.001061269,0.474508833,1.176151128,-2.298339146
0.821142793,-0.45690161,-0.342002213,-0.090476394,-0.08472389,-0.000176787,-0.09746138,0.063833334,0.001061269,0.474508833,1.176151128,-2.298339146
0.821338773,-0.443685681,-0.358532995,-0.066441357,-0.254327148,-0.094302773,-2.066095591,-0.039859157,0.102075875,0.459707166,1.159206492,-2.258020594
0.821338773,-0.443685681,-0.358532995,-0.066441357,-0.254327148,-0.094302773,-2.066095591,-0.039859157,0.102075875,0.459707166,1.159206492,-2.258020594
0.821338773,-0.443685681,-0.358532995,-0.066441357,-0.254327148,-0.094302773,-2.066095591,-0.039859157,0.102075875,0.459707166,1.159206492,-2.258020594
0.821338773,-0.443685681,-0.358532995,-0.066441357,-0.254327148,-0.094302773,-2.066095591,-0.039859157,0.102075875,0.459707166,1.159206492,-2.258020594
0.821338773,-0.443685681,-0.358532995,-0.066441357,-0.254327148,-0.094302773,-2.066095591,-0.039859157,0.102075875,0.459707166,1.159206492,-2.258020594
0.821338773,-0.443685681,-0.358532995,-0.066441357,-0.254327148,-0.094302773,-2.066095591,-0.039859157,0.102075875,0.459707166,1.159206492,-2.258020594
0.821338773,-0.443685681,-0.358532995,-0.066441357,-0.254327148,-0.094302773,-2.066095591,-0.039859157,0.102075875,0.459707166,1.159206492,-2.258020594
0.821338773,-0.443685681,-0.358532995,-0.066441357,-0.254327148,-0.094302773,-2.066095591,-0.039859157,0.102075875,0.459707166,1.159206492,-2.258020594
0.821338773,-0.443685681,-0.358532995,-0.066441357,-0.254327148,-0.094302773,-2.066095591,-0.039859157,0.102075875,0.459707166,1.159206492,-2.258020594
0.821338773,-0.443685681,-0.358532995,-0.066441357,-0.254327148,-0.094302773,-2.066095591,-0.039859157,0.102075875,0.459707166,1.159206492,-2.258020594
0.821338773,-0.443685681,-0.358532995,-0.066441357,-0.254327148,-0.094302773,-2.066095591,-0.039859157,0.102075875,0.459707166,1.159206492,-2.258020594
0.821338773,-0.443685681,-0.358532995,-0.066441357,-0.254327148,-0.094302773,-2.066095591,-0.039859157,0.102075875,0.459707166,1.159206492,-2.258020594
0.821338773,-0.443685681,-0.358532995,-0.066441357,-0.254327148,-0.094302773,-2.066095591,-0.039859157,0.102075875,0.459707166,1.159206492,-2.258020594
0.821338773,-0.443685681,-0.358532995,-0.066441357,-0.254327148,-0.094302773,-2.066095591,-0.039859157,0.102075875,0.459707166,1.159206492,-2.258020594
0.821338773,-0.443685681,-0.358532995,-0.066441357,-0.254327148,-0.094302773,-2.066095591,-0.039859157,0.102075875,0.459707166,1.159206492,-2.258020594
0.821338773,-0.443685681,-0.358532995,-0.066441357,-0.254327148,-0.094302773,-2.066095591,-0.039859157,0.102075875,0.459707166,1.159206492,-2.258020594
0.812031269,-0.319335461,-0.488497823,0.019983768,-0.192245543,0.129641056,-5.228924751,0.287000507,0.709813297,0.325028133,1.029219452,-1.876540995
0.812031269,-0.319335461,-0.488497823,0.019983768,-0.192245543,0.129641056,-5.228924751,0.287000507,0.709813297,0.325028133,1.029219452,-1.876540995
0.812031269,-0.319335461,-0.488497823,0.019983768,-0.192245543,0.129641056,-5.228924751,0.287000507,0.709813297,0.325028133,1.029219452,-1.876540995
0.808400333,-0.178784415,-0.560825408,-0.05458653,0.077817261,-0.029903889,-1.87149334,0.327515841,0.11617896,0.179750817,0.964279275,-1.518798432
0.808400333,-0.178784415,-0.560825408,-0.05458653,0.077817261,-0.029903889,-1.87149334,0.327515841,0.11617896,0.179750817,0.964279275,-1.518798432
0.808400333,-0.178784415,-0.560825408,-0.05458653,0.077817261,-0.029903889,-1.87149334,0.327515841,0.11617896,0.179750817,0.964279275,-1.518798432
0.808400333,-0.178784415,-0.560825408,-0.05458653,0.077817261,-0.029903889,-1.87149334,0.327515841,0.11617896,0.179750817,0.964279275,-1.518798432
0.808400333,-0.178784415,-0.560825408,-0.05458653,0.077817261,-0.029903889,-1.87149334,0.327515841,0.11617896,0.179750817,0.964279275,-1.518798432
0.808400333,-0.178784415,-0.560825408,-0.05458653,0.077817261,-0.029903889,-1.87149334,0.327515841,0.11617896,0.179750817,0.964279275,-1.518798432
0.776503086,-0.191643968,-0.600263,0.001526833,-0.125082552,0.050412297,0.299802125,-0.677370965,-0.581560016,0.192836883,0.912715924,-1.605810297
0.776503086,-0.191643968,-0.600263,0.001526833,-0.125082552,0.050412297,0.299802125,-0.677370965,-0.581560016,0.192836883,0.912715924,-1.605810297
0.776503086,-0.191643968,-0.600263,0.001526833,-0.125082552,0.050412297,0.299802125,-0.677370965,-0.581560016,0.192836883,0.912715924,-1.605810297
0.776503086,-0.191643968,-0.600263,0.001526833,-0.125082552,0.050412297,0.299802125,-0.677370965,-0.581560016,0.192836883,0.912715924,-1.605810297
0.789019585,-0.093929484,-0.607145309,-0.070499182,0.480343133,-0.154344916,-4.011634827,0.776174366,0.338395149,0.094068158,0.914935771,-1.457199843
0.789019585,-0.093929484,-0.607145309,-0.070499182,0.480343133,-0.154344916,-4.011634827,0.776174366,0.338395149,0.094068158,0.914935771,-1.457199843
0.789019585,-0.093929484,-0.607145309,-0.070499182,0.480343133,-0.154344916,-4.011634827,0.776174366,0.338395149,0.094068158,0.914935771,-1.457199843
0.789019585,-0.093929484,-0.607145309,-0.070499182,0.480343133,-0.154344916,-4.011634827,0.776174366,0.338395149,0.094068158,0.914935771,-1.457199843
0.789019585,-0.093929484,-0.607145309,-0.070499182,0.480343133,-0.154344916,-4.011634827,0.776174366,0.338395149,0.094068158,0.914935771,-1.457199843
0.789019585,-0.093929484,-0.607145309,-0.070499182,0.480343133,-0.154344916,-4.011634827,0.776174366,0.338395149,0.094068158,0.914935771,-1.457199843
0.789019585,-0.093929484,-0.607145309,-0.070499182,0.480343133,-0.154344916,-4.011634827,0.776174366,0.338395149,0.094068158,0.914935771,-1.457199843
0.805859745,0.008211558,-0.592049599,-0.179319501,0.338956416,-0.051490188,-5.665151119,0.815638363,0.198471606,-0.00821165,0.937171876,-1.299709528
0.805859745,0.008211558,-0.592049599,-0.179319501,0.338956416,-0.051490188,-5.665151119,0.815638363,0.198471606,-0.00821165,0.937171876,-1.299709528
0.805859745,0.008211558,-0.592049599,-0.179319501,0.338956416,-0.051490188,-5.665151119,0.815638363,0.198471606,-0.00821165,0.937171876,-1.299709528
0.805859745,0.008211558,-0.592049599,-0.179319501,0.338956416,-0.051490188,-5.665151119,0.815638363,0.198471606,-0.00821165,0.937171876,-1.299709528
0.805859745,0.008211558,-0.592049599,-0.179319501,0.338956416,-0.051490188,-5.665151119,0.815638363,0.198471606,-0.00821165,0.937171876,-1.299709528
0.805859745,0.008211558,-0.592049599,-0.179319501,0.338956416,-0.051490188,-5.665151119,0.815638363,0.198471606,-0.00821165,0.937171876,-1.299709528
0.805859745,0.008211558,-0.592049599,-0.179319501,0.338956416,-0.051490188,-5.665151119,0.815638363,0.198471606,-0.00821165,0.937171876,-1.299709528
0.805859745,0.008211558,-0.592049599,-0.179319501,0.338956416,-0.051490188,-5.665151119,0.815638363,0.198471606,-0.00821165,0.937171876,-1.299709528
0.805859745,0.008211558,-0.592049599,-0.179319501,0.338956416,-0.051490188,-5.665151119,0.815638363,0.198471606,-0.00821165,0.937171876,-1.299709528
0.757612288,0.256762177,-0.600080788,-0.329741657,0.136135966,0.382306814,-1.764621019,-2.216642857,2.490846157,-0.259670562,0.900910455,-0.710825285
0.757612288,0.256762177,-0.600080788,-0.329741657,0.136135966,0.382306814,-1.764621019,-2.216642857,2.490846157,-0.259670562,0.900910455,-0.710825285
0.757612288,0.256762177,-0.600080788,-0.329741657,0.136135966,0.382306814,-1.764621019,-2.216642857,2.490846157,-0.259670562,0.900910455,-0.710825285
0.757612288,0.256762177,-0.600080788,-0.329741657,0.136135966,0.382306814,-1.764621019,-2.216642857,2.490846157,-0.259670562,0.900910455,-0.710825285
0.757612288,0.256762177,-0.600080788,-0.329741657,0.136135966,0.382306814,-1.764621019,-2.216642857,2.490846157,-0.259670562,0.900910455,-0.710825285
0.757612288,0.256762177,-0.600080788,-0.329741657,0.136135966,0.382306814,-1.764621019,-2.216642857,2.490846157,-0.259670562,0.900910455,-0.710825285
0.757612288,0.256762177,-0.600080788,-0.329741657,0.136135966,0.382306814,-1.764621019,-2.216642857,2.490846157,-0.259670562,0.900910455,-0.710825285
0.757612288,0.256762177,-0.600080788,-0.329741657,0.136135966,0.382306814,-1.764621019,-2.216642857,2.490846157,-0.259670562,0.900910455,-0.710825285
0.757612288,0.256762177,-0.600080788,-0.329741657,0.136135966,0.382306814,-1.764621019,-2.216642857,2.490846157,-0.259670562,0.900910455,-0.710825285
0.71298033,0.201690748,-0.671550393,-0.182097375,0.076873451,-0.055546522,-0.832502306,-3.001583338,2.629308939,-0.203083844,0.815312704,-0.608361914
0.71298033,0.201690748,-0.671550393,-0.182097375,0.076873451,-0.055546522,-0.832502306,-3.001583338,2.629308939,-0.203083844,0.815312704,-0.608361914
0.71298033,0.201690748,-0.671550393,-0.182097375,0.076873451,-0.055546522,-0.832502306,-3.001583338,2.629308939,-0.203083844,0.815312704,-0.608361914
0.71298033,0.201690748,-0.671550393,-0.182097375,0.076873451,-0.055546522,-0.832502306,-3.001583338,2.629308939,-0.203083844,0.815312704,-0.608361914
0.71298033,0.201690748,-0.671550393,-0.182097375,0.076873451,-0.055546522,-0.832502306,-3.001583338,2.629308939,-0.203083844,0.815312704,-0.608361914
0.71298033,0.201690748,-0.671550393,-0.182097375,0.076873451,-0.055546522,-0.832502306,-3.001583338,2.629308939,-0.203083844,0.815312704,-0.608361914
0.646875918,0.179011151,-0.741287053,-0.200633407,-0.08884722,0.009185314,-1.963718057,-2.997463942,2.194109917,-0.179981281,0.717491177,-0.499787093
0.646875918,0.179011151,-0.741287053,-0.200633407,-0.08884722,0.009185314,-1.963718057,-2.997463942,2.194109917,-0.179981281,0.717491177,-0.499787093
0.646875918,0.179011151,-0.741287053,-0.200633407,-0.08884722,0.009185314,-1.963718057,-2.997463942,2.194109917,-0.179981281,0.717491177,-0.499787093
0.552048206,0.198775679,-0.809772193,-0.055085421,-0.225219488,-0.34692055,-2.82883954,-4.146053791,2.498675585,-0.200108508,0.598360547,-0.364401911
0.552048206,0.198775679,-0.809772193,-0.055085421,-0.225219488,-0.34692055,-2.82883954,-4.146053791,2.498675585,-0.200108508,0.598360547,-0.364401911
0.552048206,0.198775679,-0.809772193,-0.055085421,-0.225219488,-0.34692055,-2.82883954,-4.146053791,2.498675585,-0.200108508,0.598360547,-0.364401911
0.552048206,0.198775679,-0.809772193,-0.055085421,-0.225219488,-0.34692055,-2.82883954,-4.146053791,2.498675585,-0.200108508,0.598360547,-0.364401911
0.552048206,0.198775679,-0.809772193,-0.055085421,-0.225219488,-0.34692055,-2.82883954,-4.146053791,2.498675585,-0.200108508,0.598360547,-0.364401911
0.552048206,0.198775679,-0.809772193,-0.055085421,-0.225219488,-0.34692055,-2.82883954,-4.146053791,2.498675585,-0.200108508,0.598360547,-0.364401911
0.440182507,0.233888879,-0.866911411,-0.131650388,0.034070343,0.244169474,-1.923037648,-3.160576344,1.818923354,-0.236075596,0.469835931,-0.22937976
0.440182507,0.233888879,-0.866911411,-0.131650388,0.034070343,0.244169474,-1.923037648,-3.160576344,1.818923354,-0.236075596,0.469835931,-0.22937976
0.440182507,0.233888879,-0.866911411,-0.131650388,0.034070343,0.244169474,-1.923037648,-3.160576344,1.818923354,-0.236075596,0.469835931,-0.22937976
0.346792281,0.262879968,-0.900349498,-0.196509033,-0.301866651,-0.335627794,-1.1289922,-2.9505198,1.474974871,-0.266005944,0.367661388,-0.155832753
0.346792281,0.262879968,-0.900349498,-0.196509033,-0.301866651,-0.335627794,-1.1289922,-2.9505198,1.474974871,-0.266005944,0.367661388,-0.155832753
0.346792281,0.262879968,-0.900349498,-0.196509033,-0.301866651,-0.335627794,-1.1289922,-2.9505198,1.474974871,-0.266005944,0.367661388,-0.155832753
0.346792281,0.262879968,-0.900349498,-0.196509033,-0.301866651,-0.335627794,-1.1289922,-2.9505198,1.474974871,-0.266005944,0.367661388,-0.155832753
0.346792281,0.262879968,-0.900349498,-0.196509033,-0.301866651,-0.335627794,-1.1289922,-2.9505198,1.474974871,-0.266005944,0.367661388,-0.155832753
0.346792281,0.262879968,-0.900349498,-0.196509033,-0.301866651,-0.335627794,-1.1289922,-2.9505198,1.474974871,-0.266005944,0.367661388,-0.155832753
0.2546435,0.281525344,-0.925148726,0.04491666,-0.128205597,-0.384009719,-0.540185213,-2.781469345,1.534516335,-0.285383384,0.268594906,-0.077816689
0.2546435,0.281525344,-0.925148726,0.04491666,-0.128205597,-0.384009719,-0.540185213,-2.781469345,1.534516335,-0.285383384,0.268594906,-0.077816689
0.2546435,0.281525344,-0.925148726,0.04491666,-0.128205597,-0.384009719,-0.540185213,-2.781469345,1.534516335,-0.285383384,0.268594906,-0.077816689
0.2546435,0.281525344,-0.925148726,0.04491666,-0.128205597,-0.384009719,-0.540185213,-2.781469345,1.534516335,-0.285383384,0.268594906,-0.077816689
0.2546435,0.281525344,-0.925148726,0.04491666,-0.128205597,-0.384009719,-0.540185213,-2.781469345,1.534516335,-0.285383384,0.268594906,-0.077816689
0.2546435,0.281525344,-0.925148726,0.04491666,-0.128205597,-0.384009719,-0.540185213,-2.781469345,1.534516335,-0.285383384,0.268594906,-0.077816689
0.177645758,0.288924783,-0.940725505,0.087505907,0.205581456,0.164053023,0.027304402,-1.84539187,0.535698652,-0.293103529,0.186641257,-0.041655027
0.177645758,0.288924783,-0.940725505,0.087505907,0.205581456,0.164053023,0.027304402,-1.84539187,0.535698652,-0.293103529,0.186641257,-0.041655027
0.177645758,0.288924783,-0.940725505,0.087505907,0.205581456,0.164053023,0.027304402,-1.84539187,0.535698652,-0.293103529,0.186641257,-0.041655027
0.177645758,0.288924783,-0.940725505,0.087505907,0.205581456,0.164053023,0.027304402,-1.84539187,0.535698652,-0.293103529,0.186641257,-0.041655027
0.177645758,0.288924783,-0.940725505,0.087505907,0.205581456,0.164053023,0.027304402,-1.84539187,0.535698652,-0.293103529,0.186641257,-0.041655027
0.177645758,0.288924783,-0.940725505,0.087505907,0.205581456,0.164053023,0.027304402,-1.84539187,0.535698652,-0.293103529,0.186641257,-0.041655027
0.177645758,0.288924783,-0.940725505,0.087505907,0.205581456,0.164053023,0.027304402,-1.84539187,0.535698652,-0.293103529,0.186641257,-0.041655027
0.177645758,0.288924783,-0.940725505,0.087505907,0.205581456,0.164053023,0.027304402,-1.84539187,0.535698652,-0.293103529,0.186641257,-0.041655027
0.177645758,0.288924783,-0.940725505,0.087505907,0.205581456,0.164053023,0.027304402,-1.84539187,0.535698652,-0.293103529,0.186641257,-0.041655027
0.113096654,0.265881747,-0.957348466,-0.062651321,0.010896802,-0.453082561,0.872225285,-1.869353175,0.680588305,-0.269118474,0.117590302,-0.023521245
0.113096654,0.265881747,-0.957348466,-0.062651321,0.010896802,-0.453082561,0.872225285,-1.869353175,0.680588305,-0.269118474,0.117590302,-0.023521245
0.113096654,0.265881747,-0.957348466,-0.062651321,0.010896802,-0.453082561,0.872225285,-1.869353175,0.680588305,-0.269118474,0.117590302,-0.023521245
0.113096654,0.265881747,-0.957348466,-0.062651321,0.010896802,-0.453082561,0.872225285,-1.869353175,0.680588305,-0.269118474,0.117590302,-0.023521245
0.113096654,0.265881747,-0.957348466,-0.062651321,0.010896802,-0.453082561,0.872225285,-1.869353175,0.680588305,-0.269118474,0.117590302,-0.023521245
0.113096654,0.265881747,-0.957348466,-0.062651321,0.010896802,-0.453082561,0.872225285,-1.869353175,0.680588305,-0.269118474,0.117590302,-0.023521245
0.034690276,0.219933242,-0.974897921,0.153206393,-0.153863207,-0.138429165,0.996002078,-1.974529386,0.919173896,-0.221746035,0.035568489,0.014393396
0.034690276,0.219933242,-0.974897921,0.153206393,-0.153863207,-0.138429165,0.996002078,-1.974529386,0.919173896,-0.221746035,0.035568489,0.014393396
0.034690276,0.219933242,-0.974897921,0.153206393,-0.153863207,-0.138429165,0.996002078,-1.974529386,0.919173896,-0.221746035,0.035568489,0.014393396
0.034690276,0.219933242,-0.974897921,0.153206393,-0.153863207,-0.138429165,0.996002078,-1.974529386,0.919173896,-0.221746035,0.035568489,0.014393396
0.034690276,0.219933242,-0.974897921,0.153206393,-0.153863207,-0.138429165,0.996002078,-1.974529386,0.919173896,-0.221746035,0.035568489,0.014393396
0.034690276,0.219933242,-0.974897921,0.153206393,-0.153863207,-0.138429165,0.996002078,-1.974529386,0.919173896,-0.221746035,0.035568489,0.014393396
0.034690276,0.219933242,-0.974897921,0.153206393,-0.153863207,-0.138429165,0.996002078,-1.974529386,0.919173896,-0.221746035,0.035568489,0.014393396
0.034690276,0.219933242,-0.974897921,0.153206393,-0.153863207,-0.138429165,0.996002078,-1.974529386,0.919173896,-0.221746035,0.035568489,0.014393396
0.034690276,0.219933242,-0.974897921,0.153206393,-0.153863207,-0.138429165,0.996002078,-1.974529386,0.919173896,-0.221746035,0.035568489,0.014393396
0.034690276,0.219933242,-0.974897921,0.153206393,-0.153863207,-0.138429165,0.996002078,-1.974529386,0.919173896,-0.221746035,0.035568489,0.014393396
-0.026023677,0.158668458,-0.986988902,-0.007270934,0.257316262,0.22807771,2.737643003,-1.363540053,-0.149571106,-0.159341878,-0.02636063,0.025783496
-0.026023677,0.158668458,-0.986988902,-0.007270934,0.257316262,0.22807771,2.737643003,-1.363540053,-0.149571106,-0.159341878,-0.02636063,0.025783496
-0.026023677,0.158668458,-0.986988902,-0.007270934,0.257316262,0.22807771,2.737643003,-1.363540053,-0.149571106,-0.159341878,-0.02636063,0.025783496
-0.026023677,0.158668458,-0.986988902,-0.007270934,0.257316262,0.22807771,2.737643003,-1.363540053,-0.149571106,-0.159341878,-0.02636063,0.025783496
-0.026023677,0.158668458,-0.986988902,-0.007270934,0.257316262,0.22807771,2.737643003,-1.363540053,-0.149571106,-0.159341878,-0.02636063,0.025783496
-0.141698286,0.051479299,-0.988570452,0.065603048,0.01301942,-0.002274334,-0.527853549,0.037385311,-0.040095434,-0.051502065,-0.142366858,0.036375959
-0.141698286,0.051479299,-0.988570452,0.065603048,0.01301942,-0.002274334,-0.527853549,0.037385311,-0.040095434,-0.051502065,-0.142366858,0.036375959
-0.141698286,0.051479299,-0.988570452,0.065603048,0.01301942,-0.002274334,-0.527853549,0.037385311,-0.040095434,-0.051502065,-0.142366858,0.036375959
-0.141698286,0.051479299,-0.988570452,0.065603048,0.01301942,-0.002274334,-0.527853549,0.037385311,-0.040095434,-0.051502065,-0.142366858,0.036375959
-0.141698286,0.051479299,-0.988570452,0.065603048,0.01301942,-0.002274334,-0.527853549,0.037385311,-0.040095434,-0.051502065,-0.142366858,0.036375959
-0.141698286,0.051479299,-0.988570452,0.065603048,0.01301942,-0.002274334,-0.527853549,0.037385311,-0.040095434,-0.051502065,-0.142366858,0.036375959
-0.141698286,0.051479299,-0.988570452,0.065603048,0.01301942,-0.002274334,-0.527853549,0.037385311,-0.040095434,-0.051502065,-0.142366858,0.036375959
-0.130895391,0.071344316,-0.988825738,0.056387037,0.040929623,0.04198736,-0.405991077,0.114711165,-0.015450116,-0.071404979,-0.131609401,0.033437633
-0.130895391,0.071344316,-0.988825738,0.056387037,0.040929623,0.04198736,-0.405991077,0.114711165,-0.015450116,-0.071404979,-0.131609401,0.033437633
-0.099795461,0.120328046,-0.98770541,0.029406868,0.010836229,-0.015010655,-0.12462686,0.039178308,-0.022380833,-0.120620321,-0.10069595,0.020610987
-0.094747923,0.127264366,-0.987333059,0.040243745,0.007439896,0.039975882,-0.04270985,0.033428289,-0.007719705,-0.127610424,-0.095670525,0.019133462
-0.094747923,0.127264366,-0.987333059,0.040243745,0.007439896,0.039975882,-0.04270985,0.033428289,-0.007719705,-0.127610424,-0.095670525,0.019133462
-0.094747923,0.127264366,-0.987333059,0.040243745,0.007439896,0.039975882,-0.04270985,0.033428289,-0.007719705,-0.127610424,-0.095670525,0.019133462
-0.094747923,0.127264366,-0.987333059,0.040243745,0.007439896,0.039975882,-0.04270985,0.033428289,-0.007719705,-0.127610424,-0.095670525,0.019133462
-0.094747923,0.127264366,-0.987333059,0.040243745,0.007439896,0.039975882,-0.04270985,0.033428289,-0.007719705,-0.127610424,-0.095670525,0.019133462
-0.094747923,0.127264366,-0.987333059,0.040243745,0.007439896,0.039975882,-0.04270985,0.033428289,-0.007719705,-0.127610424,-0.095670525,0.019133462
-0.094747923,0.127264366,-0.987333059,0.040243745,0.007439896,0.039975882,-0.04270985,0.033428289,-0.007719705,-0.127610424,-0.095670525,0.019133462
-0.094747923,0.127264366,-0.987333059,0.040243745,0.007439896,0.039975882,-0.04270985,0.033428289,-0.007719705,-0.127610424,-0.095670525,0.019133462
-0.094747923,0.127264366,-0.987333059,0.040243745,0.007439896,0.039975882,-0.04270985,0.033428289,-0.007719705,-0.127610424,-0.095670525,0.019133462
-0.094747923,0.127264366,-0.987333059,0.040243745,0.007439896,0.039975882,-0.04270985,0.033428289,-0.007719705,-0.127610424,-0.095670525,0.019133462
-0.094747923,0.127264366,-0.987333059,0.040243745,0.007439896,0.039975882,-0.04270985,0.033428289,-0.007719705,-0.127610424,-0.095670525,0.019133462
-0.094747923,0.127264366,-0.987333059,0.040243745,0.007439896,0.039975882,-0.04270985,0.033428289,-0.007719705,-0.127610424,-0.095670525,0.019133462
-0.092129141,0.127573535,-0.98754102,0.031277321,0.034306616,0.012595892,0.032996561,-0.037563343,-0.016298279,-0.127922134,-0.093022216,0.018701675
-0.092129141,0.127573535,-0.98754102,0.031277321,0.034306616,0.012595892,0.032996561,-0.037563343,-0.016298279,-0.127922134,-0.093022216,0.018701675
-0.092129141,0.127573535,-0.98754102,0.031277321,0.034306616,0.012595892,0.032996561,-0.037563343,-0.016298279,-0.127922134,-0.093022216,0.018701675
-0.092129141,0.127573535,-0.98754102,0.031277321,0.034306616,0.012595892,0.032996561,-0.037563343,-0.016298279,-0.127922134,-0.093022216,0.018701675
-0.092129141,0.127573535,-0.98754102,0.031277321,0.034306616,0.012595892,0.032996561,-0.037563343,-0.016298279,-0.127922134,-0.093022216,0.018701675
-0.090420954,0.131417319,-0.987194777,0.009641148,0.003347933,0.00845021,-0.110652402,0.076968446,-0.012664609,-0.131798566,-0.091338973,0.018472316
-0.090420954,0.131417319,-0.987194777,0.009641148,0.003347933,0.00845021,-0.110652402,0.076968446,-0.012664609,-0.131798566,-0.091338973,0.018472316
-0.090420954,0.131417319,-0.987194777,0.009641148,0.003347933,0.00845021,-0.110652402,0.076968446,-0.012664609,-0.131798566,-0.091338973,0.018472316
-0.086360253,0.132328808,-0.987436593,0.043818966,0.018976957,0.035867929,0.172158986,-0.018464036,-0.019606939,-0.132718091,-0.087237061,0.018256118
-0.086360253,0.132328808,-0.987436593,0.043818966,0.018976957,0.035867929,0.172158986,-0.018464036,-0.019606939,-0.132718091,-0.087237061,0.018256118
-0.086360253,0.132328808,-0.987436593,0.043818966,0.018976957,0.035867929,0.172158986,-0.018464036,-0.019606939,-0.132718091,-0.087237061,0.018256118
-0.086360253,0.132328808,-0.987436593,0.043818966,0.018976957,0.035867929,0.172158986,-0.018464036,-0.019606939,-0.132718091,-0.087237061,0.018256118
-0.08247491,0.143367231,-0.986227036,0.030869916,0.020542234,0.036916673,-0.093034402,0.014139256,0.006337258,-0.14386296,-0.083432567,0.018203542
-0.08247491,0.143367231,-0.986227036,0.030869916,0.020542234,0.036916673,-0.093034402,0.014139256,0.006337258,-0.14386296,-0.083432567,0.018203542
-0.08247491,0.143367231,-0.986227036,0.030869916,0.020542234,0.036916673,-0.093034402,0.014139256,0.006337258,-0.14386296,-0.083432567,0.018203542
-0.082500383,0.147831514,-0.985565603,0.013515666,0.029642954,0.013061881,-0.159004971,-0.002568632,0.030812774,-0.14837533,-0.083513967,0.018940598
-0.082500383,0.147831514,-0.985565603,0.013515666,0.029642954,0.013061881,-0.159004971,-0.002568632,0.030812774,-0.14837533,-0.083513967,0.018940598
-0.082500383,0.147831514,-0.985565603,0.013515666,0.029642954,0.013061881,-0.159004971,-0.002568632,0.030812774,-0.14837533,-0.083513967,0.018940598
-0.082500383,0.147831514,-0.985565603,0.013515666,0.029642954,0.013061881,-0.159004971,-0.002568632,0.030812774,-0.14837533,-0.083513967,0.018940598
-0.082500383,0.147831514,-0.985565603,0.013515666,0.029642954,0.013061881,-0.159004971,-0.002568632,0.030812774,-0.14837533,-0.083513967,0.018940598
-0.081351243,0.185553223,-0.979260921,0.115409128,0.197319686,-0.115175784,0.153517082,-0.206393555,0.134568304,-0.186634828,-0.082883806,0.022829241
-0.081351243,0.185553223,-0.979260921,0.115409128,0.197319686,-0.115175784,0.153517082,-0.206393555,0.134568304,-0.186634828,-0.082883806,0.022829241
-0.081351243,0.185553223,-0.979260921,0.115409128,0.197319686,-0.115175784,0.153517082,-0.206393555,0.134568304,-0.186634828,-0.082883806,0.022829241
-0.081351243,0.185553223,-0.979260921,0.115409128,0.197319686,-0.115175784,0.153517082,-0.206393555,0.134568304,-0.186634828,-0.082883806,0.022829241
-0.086787,0.164932504,-0.982479155,-0.014134347,0.061385289,0.007671356,-0.211059108,0.169521689,-0.302744687,-0.165689578,-0.088106007,0.024604161
-0.086787,0.164932504,-0.982479155,-0.014134347,0.061385289,0.007671356,-0.211059108,0.169521689,-0.302744687,-0.165689578,-0.088106007,0.024604161
-0.086787,0.164932504,-0.982479155,-0.014134347,0.061385289,0.007671356,-0.211059108,0.169521689,-0.302744687,-0.165689578,-0.088106007,0.024604161
-0.086787,0.164932504,-0.982479155,-0.014134347,0.061385289,0.007671356,-0.211059108,0.169521689,-0.302744687,-0.165689578,-0.088106007,0.024604161
-0.086787,0.164932504,-0.982479155,-0.014134347,0.061385289,0.007671356,-0.211059108,0.169521689,-0.302744687,-0.165689578,-0.088106007,0.024604161
-0.086787,0.164932504,-0.982479155,-0.014134347,0.061385289,0.007671356,-0.211059108,0.169521689,-0.302744687,-0.165689578,-0.088106007,0.024604161
-0.086787,0.164932504,-0.982479155,-0.014134347,0.061385289,0.007671356,-0.211059108,0.169521689,-0.302744687,-0.165689578,-0.088106007,0.024604161
-0.086787,0.164932504,-0.982479155,-0.014134347,0.061385289,0.007671356,-0.211059108,0.169521689,-0.302744687,-0.165689578,-0.088106007,0.024604161
-0.086787,0.164932504,-0.982479155,-0.014134347,0.061385289,0.007671356,-0.211059108,0.169521689,-0.302744687,-0.165689578,-0.088106007,0.024604161
-0.086787,0.164932504,-0.982479155,-0.014134347,0.061385289,0.007671356,-0.211059108,0.169521689,-0.302744687,-0.165689578,-0.088106007,0.024604161
-0.086787,0.164932504,-0.982479155,-0.014134347,0.061385289,0.007671356,-0.211059108,0.169521689,-0.302744687,-0.165689578,-0.088106007,0.024604161
-0.075793415,0.183159038,-0.980157197,0.081210554,0.121558309,0.012597322,-0.155779496,0.011929558,0.012136238,-0.184198888,-0.077174239,0.020628868
-0.075793415,0.183159038,-0.980157197,0.081210554,0.121558309,0.012597322,-0.155779496,0.011929558,0.012136238,-0.184198888,-0.077174239,0.020628868
-0.075793415,0.183159038,-0.980157197,0.081210554,0.121558309,0.012597322,-0.155779496,0.011929558,0.012136238,-0.184198888,-0.077174239,0.020628868
-0.075793415,0.183159038,-0.980157197,0.081210554,0.121558309,0.012597322,-0.155779496,0.011929558,0.012136238,-0.184198888,-0.077174239,0.020628868
-0.075793415,0.183159038,-0.980157197,0.081210554,0.121558309,0.012597322,-0.155779496,0.011929558,0.012136238,-0.184198888,-0.077174239,0.020628868
-0.075793415,0.183159038,-0.980157197,0.081210554,0.121558309,0.012597322,-0.155779496,0.011929558,0.012136238,-0.184198888,-0.077174239,0.020628868
-0.075793415,0.183159038,-0.980157197,0.081210554,0.121558309,0.012597322,-0.155779496,0.011929558,0.012136238,-0.184198888,-0.077174239,0.020628868
-0.075793415,0.183159038,-0.980157197,0.081210554,0.121558309,0.012597322,-0.155779496,0.011929558,0.012136238,-0.184198888,-0.077174239,0.020628868
-0.075793415,0.183159038,-0.980157197,0.081210554,0.121558309,0.012597322,-0.155779496,0.011929558,0.012136238,-0.184198888,-0.077174239,0.020628868
-0.075793415,0.183159038,-0.980157197,0.081210554,0.121558309,0.012597322,-0.155779496,0.011929558,0.012136238,-0.184198888,-0.077174239,0.020628868
-0.075793415,0.183159038,-0.980157197,0.081210554,0.121558309,0.012597322,-0.155779496,0.011929558,0.012136238,-0.184198888,-0.077174239,0.020628868
-0.075793415,0.183159038,-0.980157197,0.081210554,0.121558309,0.012597322,-0.155779496,0.011929558,0.012136238,-0.184198888,-0.077174239,0.020628868
-0.075793415,0.183159038,-0.980157197,0.081210554,0.121558309,0.012597322,-0.155779496,0.011929558,0.012136238,-0.184198888,-0.077174239,0.020628868
-0.075793415,0.183159038,-0.980157197,0.081210554,0.121558309,0.012597322,-0.155779496,0.011929558,0.012136238,-0.184198888,-0.077174239,0.020628868
-0.075793415,0.183159038,-0.980157197,0.081210554,0.121558309,0.012597322,-0.155779496,0.011929558,0.012136238,-0.184198888,-0.077174239,0.020628868
-0.07855612,0.185351864,-0.979527235,0.005863518,0.001308233,0.05016011,-0.13783145,0.075489968,-0.011052651,-0.186429918,-0.080026717,0.02174318
-0.07855612,0.185351864,-0.979527235,0.005863518,0.001308233,0.05016011,-0.13783145,0.075489968,-0.011052651,-0.186429918,-0.080026717,0.02174318
-0.07855612,0.185351864,-0.979527235,0.005863518,0.001308233,0.05016011,-0.13783145,0.075489968,-0.011052651,-0.186429918,-0.080026717,0.02174318
-0.07855612,0.185351864,-0.979527235,0.005863518,0.001308233,0.05016011,-0.13783145,0.075489968,-0.011052651,-0.186429918,-0.080026717,0.02174318
-0.07855612,0.185351864,-0.979527235,0.005863518,0.001308233,0.05016011,-0.13783145,0.075489968,-0.011052651,-0.186429918,-0.080026717,0.02174318
-0.07855612,0.185351864,-0.979527235,0.005863518,0.001308233,0.05016011,-0.13783145,0.075489968,-0.011052651,-0.186429918,-0.080026717,0.02174318
-0.07855612,0.185351864,-0.979527235,0.005863518,0.001308233,0.05016011,-0.13783145,0.075489968,-0.011052651,-0.186429918,-0.080026717,0.02174318
-0.07855612,0.185351864,-0.979527235,0.005863518,0.001308233,0.05016011,-0.13783145,0.075489968,-0.011052651,-0.186429918,-0.080026717,0.02174318
-0.07855612,0.185351864,-0.979527235,0.005863518,0.001308233,0.05016011,-0.13783145,0.075489968,-0.011052651,-0.186429918,-0.080026717,0.02174318
0.013358122,0.279503047,-0.960051894,-0.026404381,-0.009773314,0.010436416,0.129562154,0.011561847,-0.016324218,-0.283276496,0.01391306,0.001485463
0.013358122,0.279503047,-0.960051894,-0.026404381,-0.009773314,0.010436416,0.129562154,0.011561847,-0.016324218,-0.283276496,0.01391306,0.001485463
0.013358122,0.279503047,-0.960051894,-0.026404381,-0.009773314,0.010436416,0.129562154,0.011561847,-0.016324218,-0.283276496,0.01391306,0.001485463
0.013046606,0.276048422,-0.96105516,0.009551667,-0.044343591,0.022502363,0.225216031,-0.063220128,0.019490184,-0.279680353,0.01357446,0.001590602
0.013046606,0.276048422,-0.96105516,0.009551667,-0.044343591,0.022502363,0.225216031,-0.063220128,0.019490184,-0.279680353,0.01357446,0.001590602