gravityX,gravityY,gravityZ,accelX,accelY,accelZ,rotRateX,rotRatY,rotRateZ,attPitch,attRoll,attYaw
-0.09157183,-0.166521579,-0.981776536,0.015842468,-0.039441541,0.006846726,0.092356689,0.002012126,0.023950605,0.167300929,-0.093002492,0.007803484
-0.09157183,-0.166521579,-0.981776536,0.015842468,-0.039441541,0.006846726,0.092356689,0.002012126,0.023950605,0.167300929,-0.093002492,0.007803484
-0.090376861,-0.169075042,-0.981450796,0.024687812,-0.039161593,0.008947134,0.052070629,0.000316347,0.012480798,0.169891129,-0.091826,0.008090378
-0.090376861,-0.169075042,-0.981450796,0.024687812,-0.039161593,0.008947134,0.052070629,0.000316347,0.012480798,0.169891129,-0.091826,0.008090378
-0.090376861,-0.169075042,-0.981450796,0.024687812,-0.039161593,0.008947134,0.052070629,0.000316347,0.012480798,0.169891129,-0.091826,0.008090378
-0.090376861,-0.169075042,-0.981450796,0.024687812,-0.039161593,0.008947134,0.052070629,0.000316347,0.012480798,0.169891129,-0.091826,0.008090378
-0.090376861,-0.169075042,-0.981450796,0.024687812,-0.039161593,0.008947134,0.052070629,0.000316347,0.012480798,0.169891129,-0.091826,0.008090378
-0.090376861,-0.169075042,-0.981450796,0.024687812,-0.039161593,0.008947134,0.052070629,0.000316347,0.012480798,0.169891129,-0.091826,0.008090378
-0.090376861,-0.169075042,-0.981450796,0.024687812,-0.039161593,0.008947134,0.052070629,0.000316347,0.012480798,0.169891129,-0.091826,0.008090378
-0.090376861,-0.169075042,-0.981450796,0.024687812,-0.039161593,0.008947134,0.052070629,0.000316347,0.012480798,0.169891129,-0.091826,0.008090378
-0.090376861,-0.169075042,-0.981450796,0.024687812,-0.039161593,0.008947134,0.052070629,0.000316347,0.012480798,0.169891129,-0.091826,0.008090378
-0.090376861,-0.169075042,-0.981450796,0.024687812,-0.039161593,0.008947134,0.052070629,0.000316347,0.012480798,0.169891129,-0.091826,0.008090378
-0.090376861,-0.169075042,-0.981450796,0.024687812,-0.039161593,0.008947134,0.052070629,0.000316347,0.012480798,0.169891129,-0.091826,0.008090378
-0.090376861,-0.169075042,-0.981450796,0.024687812,-0.039161593,0.008947134,0.052070629,0.000316347,0.012480798,0.169891129,-0.091826,0.008090378
-0.090376861,-0.169075042,-0.981450796,0.024687812,-0.039161593,0.008947134,0.052070629,0.000316347,0.012480798,0.169891129,-0.091826,0.008090378
-0.090376861,-0.169075042,-0.981450796,0.024687812,-0.039161593,0.008947134,0.052070629,0.000316347,0.012480798,0.169891129,-0.091826,0.008090378
-0.090376861,-0.169075042,-0.981450796,0.024687812,-0.039161593,0.008947134,0.052070629,0.000316347,0.012480798,0.169891129,-0.091826,0.008090378
-0.090553716,-0.170217231,-0.981237054,0.003059864,-0.032297328,0.014165461,-0.013209961,0.004895809,0.000107804,0.171050118,-0.092024607,0.008554255
-0.090553716,-0.170217231,-0.981237054,0.003059864,-0.032297328,0.014165461,-0.013209961,0.004895809,0.000107804,0.171050118,-0.092024607,0.008554255
-0.090553716,-0.170217231,-0.981237054,0.003059864,-0.032297328,0.014165461,-0.013209961,0.004895809,0.000107804,0.171050118,-0.092024607,0.008554255
-0.090553716,-0.170217231,-0.981237054,0.003059864,-0.032297328,0.014165461,-0.013209961,0.004895809,0.000107804,0.171050118,-0.092024607,0.008554255
-0.090553716,-0.170217231,-0.981237054,0.003059864,-0.032297328,0.014165461,-0.013209961,0.004895809,0.000107804,0.171050118,-0.092024607,0.008554255
-0.090553716,-0.170217231,-0.981237054,0.003059864,-0.032297328,0.014165461,-0.013209961,0.004895809,0.000107804,0.171050118,-0.092024607,0.008554255
-0.090553716,-0.170217231,-0.981237054,0.003059864,-0.032297328,0.014165461,-0.013209961,0.004895809,0.000107804,0.171050118,-0.092024607,0.008554255
-0.090553716,-0.170217231,-0.981237054,0.003059864,-0.032297328,0.014165461,-0.013209961,0.004895809,0.000107804,0.171050118,-0.092024607,0.008554255
-0.090553716,-0.170217231,-0.981237054,0.003059864,-0.032297328,0.014165461,-0.013209961,0.004895809,0.000107804,0.171050118,-0.092024607,0.008554255
-0.090553716,-0.170217231,-0.981237054,0.003059864,-0.032297328,0.014165461,-0.013209961,0.004895809,0.000107804,0.171050118,-0.092024607,0.008554255
-0.090553716,-0.170217231,-0.981237054,0.003059864,-0.032297328,0.014165461,-0.013209961,0.004895809,0.000107804,0.171050118,-0.092024607,0.008554255
-0.090553716,-0.170217231,-0.981237054,0.003059864,-0.032297328,0.014165461,-0.013209961,0.004895809,0.000107804,0.171050118,-0.092024607,0.008554255
-0.090553716,-0.170217231,-0.981237054,0.003059864,-0.032297328,0.014165461,-0.013209961,0.004895809,0.000107804,0.171050118,-0.092024607,0.008554255
-0.090553716,-0.170217231,-0.981237054,0.003059864,-0.032297328,0.014165461,-0.013209961,0.004895809,0.000107804,0.171050118,-0.092024607,0.008554255
-0.090553716,-0.170217231,-0.981237054,0.003059864,-0.032297328,0.014165461,-0.013209961,0.004895809,0.000107804,0.171050118,-0.092024607,0.008554255
-0.090776965,-0.168658838,-0.981485486,0.0103174,-0.011455864,0.012628675,-0.031419206,-0.022646446,-0.001806262,0.169468854,-0.09222698,0.00821691
-0.090776965,-0.168658838,-0.981485486,0.0103174,-0.011455864,0.012628675,-0.031419206,-0.022646446,-0.001806262,0.169468854,-0.09222698,0.00821691
-0.090776965,-0.168658838,-0.981485486,0.0103174,-0.011455864,0.012628675,-0.031419206,-0.022646446,-0.001806262,0.169468854,-0.09222698,0.00821691
-0.090776965,-0.168658838,-0.981485486,0.0103174,-0.011455864,0.012628675,-0.031419206,-0.022646446,-0.001806262,0.169468854,-0.09222698,0.00821691
-0.090776965,-0.168658838,-0.981485486,0.0103174,-0.011455864,0.012628675,-0.031419206,-0.022646446,-0.001806262,0.169468854,-0.09222698,0.00821691
,,,,,,,,,,,
-0.090776965,-0.168658838,-0.981485486,0.0103174,-0.011455864,0.012628675,-0.031419206,-0.022646446,-0.001806262,0.169468854,-0.09222698,0.00821691
-0.090776965,-0.168658838,-0.981485486,0.0103174,-0.011455864,0.012628675,-0.031419206,-0.022646446,-0.001806262,0.169468854,-0.09222698,0.00821691
-0.090776965,-0.168658838,-0.981485486,0.0103174,-0.011455864,0.012628675,-0.031419206,-0.022646446,-0.001806262,0.169468854,-0.09222698,0.00821691
-0.090776965,-0.168658838,-0.981485486,0.0103174,-0.011455864,0.012628675,-0.031419206,-0.022646446,-0.001806262,0.169468854,-0.09222698,0.00821691
-0.090776965,-0.168658838,-0.981485486,0.0103174,-0.011455864,0.012628675,-0.031419206,-0.022646446,-0.001806262,0.169468854,-0.09222698,0.00821691
-0.090776965,-0.168658838,-0.981485486,0.0103174,-0.011455864,0.012628675,-0.031419206,-0.022646446,-0.001806262,0.169468854,-0.09222698,0.00821691
-0.090776965,-0.168658838,-0.981485486,0.0103174,-0.011455864,0.012628675,-0.031419206,-0.022646446,-0.001806262,0.169468854,-0.09222698,0.00821691
-0.090776965,-0.168658838,-0.981485486,0.0103174,-0.011455864,0.012628675,-0.031419206,-0.022646446,-0.001806262,0.169468854,-0.09222698,0.00821691
-0.090776965,-0.168658838,-0.981485486,0.0103174,-0.011455864,0.012628675,-0.031419206,-0.022646446,-0.001806262,0.169468854,-0.09222698,0.00821691
-0.090776965,-0.168658838,-0.981485486,0.0103174,-0.011455864,0.012628675,-0.031419206,-0.022646446,-0.001806262,0.169468854,-0.09222698,0.00821691
-0.090776965,-0.168658838,-0.981485486,0.0103174,-0.011455864,0.012628675,-0.031419206,-0.022646446,-0.001806262,0.169468854,-0.09222698,0.00821691
-0.090776965,-0.168658838,-0.981485486,0.0103174,-0.011455864,0.012628675,-0.031419206,-0.022646446,-0.001806262,0.169468854,-0.09222698,0.00821691
-0.090776965,-0.168658838,-0.981485486,0.0103174,-0.011455864,0.012628675,-0.031419206,-0.022646446,-0.001806262,0.169468854,-0.09222698,0.00821691
-0.090776965,-0.168658838,-0.981485486,0.0103174,-0.011455864,0.012628675,-0.031419206,-0.022646446,-0.001806262,0.169468854,-0.09222698,0.00821691
-0.090776965,-0.168658838,-0.981485486,0.0103174,-0.011455864,0.012628675,-0.031419206,-0.022646446,-0.001806262,0.169468854,-0.09222698,0.00821691
-0.001120203,-0.419349194,-0.907824337,-0.113335945,-0.412163645,-0.322293401,2.471817255,0.930050075,-1.118204832,0.432728311,-0.001233942,-0.039377022
-0.001120203,-0.419349194,-0.907824337,-0.113335945,-0.412163645,-0.322293401,2.471817255,0.930050075,-1.118204832,0.432728311,-0.001233942,-0.039377022
-0.001120203,-0.419349194,-0.907824337,-0.113335945,-0.412163645,-0.322293401,2.471817255,0.930050075,-1.118204832,0.432728311,-0.001233942,-0.039377022
0.068993397,-0.520160019,-0.85127753,-0.124779433,-0.44465369,-0.27486676,3.236953974,1.243727207,-2.007991314,0.547038335,0.080870128,-0.117295528
0.068993397,-0.520160019,-0.85127753,-0.124779433,-0.44465369,-0.27486676,3.236953974,1.243727207,-2.007991314,0.547038335,0.080870128,-0.117295528
0.068993397,-0.520160019,-0.85127753,-0.124779433,-0.44465369,-0.27486676,3.236953974,1.243727207,-2.007991314,0.547038335,0.080870128,-0.117295528
0.068993397,-0.520160019,-0.85127753,-0.124779433,-0.44465369,-0.27486676,3.236953974,1.243727207,-2.007991314,0.547038335,0.080870128,-0.117295528
0.068993397,-0.520160019,-0.85127753,-0.124779433,-0.44465369,-0.27486676,3.236953974,1.243727207,-2.007991314,0.547038335,0.080870128,-0.117295528
0.068993397,-0.520160019,-0.85127753,-0.124779433,-0.44465369,-0.27486676,3.236953974,1.243727207,-2.007991314,0.547038335,0.080870128,-0.117295528
0.164236456,-0.61152029,-0.773995697,-0.135549784,-0.328192651,-0.127844334,3.199598551,1.218020678,-2.707587481,0.657980593,0.209091629,-0.252720508
0.164236456,-0.61152029,-0.773995697,-0.135549784,-0.328192651,-0.127844334,3.199598551,1.218020678,-2.707587481,0.657980593,0.209091629,-0.252720508
0.164236456,-0.61152029,-0.773995697,-0.135549784,-0.328192651,-0.127844334,3.199598551,1.218020678,-2.707587481,0.657980593,0.209091629,-0.252720508
0.164236456,-0.61152029,-0.773995697,-0.135549784,-0.328192651,-0.127844334,3.199598551,1.218020678,-2.707587481,0.657980593,0.209091629,-0.252720508
0.164236456,-0.61152029,-0.773995697,-0.135549784,-0.328192651,-0.127844334,3.199598551,1.218020678,-2.707587481,0.657980593,0.209091629,-0.252720508
0.164236456,-0.61152029,-0.773995697,-0.135549784,-0.328192651,-0.127844334,3.199598551,1.218020678,-2.707587481,0.657980593,0.209091629,-0.252720508
0.164236456,-0.61152029,-0.773995697,-0.135549784,-0.328192651,-0.127844334,3.199598551,1.218020678,-2.707587481,0.657980593,0.209091629,-0.252720508
0.164236456,-0.61152029,-0.773995697,-0.135549784,-0.328192651,-0.127844334,3.199598551,1.218020678,-2.707587481,0.657980593,0.209091629,-0.252720508
0.164236456,-0.61152029,-0.773995697,-0.135549784,-0.328192651,-0.127844334,3.199598551,1.218020678,-2.707587481,0.657980593,0.209091629,-0.252720508
0.164236456,-0.61152029,-0.773995697,-0.135549784,-0.328192651,-0.127844334,3.199598551,1.218020678,-2.707587481,0.657980593,0.209091629,-0.252720508
0.164236456,-0.61152029,-0.773995697,-0.135549784,-0.328192651,-0.127844334,3.199598551,1.218020678,-2.707587481,0.657980593,0.209091629,-0.252720508
0.164236456,-0.61152029,-0.773995697,-0.135549784,-0.328192651,-0.127844334,3.199598551,1.218020678,-2.707587481,0.657980593,0.209091629,-0.252720508
0.273048609,-0.681273341,-0.679198921,-0.180214047,-0.228120148,0.050979376,3.28664875,0.904471636,-3.283355951,0.749500667,0.382242837,-0.453561167
0.273048609,-0.681273341,-0.679198921,-0.180214047,-0.228120148,0.050979376,3.28664875,0.904471636,-3.283355951,0.749500667,0.382242837,-0.453561167
0.273048609,-0.681273341,-0.679198921,-0.180214047,-0.228120148,0.050979376,3.28664875,0.904471636,-3.283355951,0.749500667,0.382242837,-0.453561167
0.273048609,-0.681273341,-0.679198921,-0.180214047,-0.228120148,0.050979376,3.28664875,0.904471636,-3.283355951,0.749500667,0.382242837,-0.453561167
0.273048609,-0.681273341,-0.679198921,-0.180214047,-0.228120148,0.050979376,3.28664875,0.904471636,-3.283355951,0.749500667,0.382242837,-0.453561167
0.273048609,-0.681273341,-0.679198921,-0.180214047,-0.228120148,0.050979376,3.28664875,0.904471636,-3.283355951,0.749500667,0.382242837,-0.453561167
0.273048609,-0.681273341,-0.679198921,-0.180214047,-0.228120148,0.050979376,3.28664875,0.904471636,-3.283355951,0.749500667,0.382242837,-0.453561167
0.273048609,-0.681273341,-0.679198921,-0.180214047,-0.228120148,0.050979376,3.28664875,0.904471636,-3.283355951,0.749500667,0.382242837,-0.453561167
0.273048609,-0.681273341,-0.679198921,-0.180214047,-0.228120148,0.050979376,3.28664875,0.904471636,-3.283355951,0.749500667,0.382242837,-0.453561167
0.273048609,-0.681273341,-0.679198921,-0.180214047,-0.228120148,0.050979376,3.28664875,0.904471636,-3.283355951,0.749500667,0.382242837,-0.453561167
0.273048609,-0.681273341,-0.679198921,-0.180214047,-0.228120148,0.050979376,3.28664875,0.904471636,-3.283355951,0.749500667,0.382242837,-0.453561167
0.273048609,-0.681273341,-0.679198921,-0.180214047,-0.228120148,0.050979376,3.28664875,0.904471636,-3.283355951,0.749500667,0.382242837,-0.453561167
0.390157163,-0.706116438,-0.590911984,-0.243367672,-0.178908348,0.132217348,2.289512157,0.558229148,-3.73996377,0.783998603,0.583556002,-0.700283764
0.390157163,-0.706116438,-0.590911984,-0.243367672,-0.178908348,0.132217348,2.289512157,0.558229148,-3.73996377,0.783998603,0.583556002,-0.700283764
0.390157163,-0.706116438,-0.590911984,-0.243367672,-0.178908348,0.132217348,2.289512157,0.558229148,-3.73996377,0.783998603,0.583556002,-0.700283764
0.502606094,-0.684396327,-0.528193951,-0.279507339,0.035318017,0.125178814,2.139754295,0.039537881,-3.903497934,0.753775429,0.760579972,-0.938046978
0.502606094,-0.684396327,-0.528193951,-0.279507339,0.035318017,0.125178814,2.139754295,0.039537881,-3.903497934,0.753775429,0.760579972,-0.938046978
0.604203165,-0.647912979,-0.46383971,-0.207810283,0.253259718,0.085803151,2.921323776,-0.431927592,-3.804291487,0.704841335,0.916070459,-1.180562325
0.604203165,-0.647912979,-0.46383971,-0.207810283,0.253259718,0.085803151,2.921323776,-0.431927592,-3.804291487,0.704841335,0.916070459,-1.180562325
0.604203165,-0.647912979,-0.46383971,-0.207810283,0.253259718,0.085803151,2.921323776,-0.431927592,-3.804291487,0.704841335,0.916070459,-1.180562325
0.604203165,-0.647912979,-0.46383971,-0.207810283,0.253259718,0.085803151,2.921323776,-0.431927592,-3.804291487,0.704841335,0.916070459,-1.180562325
0.604203165,-0.647912979,-0.46383971,-0.207810283,0.253259718,0.085803151,2.921323776,-0.431927592,-3.804291487,0.704841335,0.916070459,-1.180562325
0.604203165,-0.647912979,-0.46383971,-0.207810283,0.253259718,0.085803151,2.921323776,-0.431927592,-3.804291487,0.704841335,0.916070459,-1.180562325
0.679718792,-0.610823691,-0.406050235,-0.178284287,0.057356775,0.134718537,3.124591112,-1.056620121,-3.157448769,0.657100489,1.032305741,-1.410866766
0.679718792,-0.610823691,-0.406050235,-0.178284287,0.057356775,0.134718537,3.124591112,-1.056620121,-3.157448769,0.657100489,1.032305741,-1.410866766
0.679718792,-0.610823691,-0.406050235,-0.178284287,0.057356775,0.134718537,3.124591112,-1.056620121,-3.157448769,0.657100489,1.032305741,-1.410866766
0.679718792,-0.610823691,-0.406050235,-0.178284287,0.057356775,0.134718537,3.124591112,-1.056620121,-3.157448769,0.657100489,1.032305741,-1.410866766
0.679718792,-0.610823691,-0.406050235,-0.178284287,0.057356775,0.134718537,3.124591112,-1.056620121,-3.157448769,0.657100489,1.032305741,-1.410866766
0.732106745,-0.575690508,-0.364142865,-0.164479733,0.231009781,0.01654762,3.317726135,-1.375728846,-2.793077469,0.613448414,1.109238548,-1.623677096
0.79392457,-0.478722036,-0.374845296,0.143192947,-0.303427666,0.249310374,-4.179578781,0.067414254,0.210033879,0.499198545,1.129682278,-2.134462597
0.79392457,-0.478722036,-0.374845296,0.143192947,-0.303427666,0.249310374,-4.179578781,0.067414254,0.210033879,0.499198545,1.129682278,-2.134462597
0.789811969,-0.424993426,-0.442241699,-0.033099234,0.341116488,-0.01285255,-2.456218958,-0.115911439,0.229082078,0.438954622,1.06035911,-1.992629591
0.789811969,-0.424993426,-0.442241699,-0.033099234,0.341116488,-0.01285255,-2.456218958,-0.115911439,0.229082078,0.438954622,1.06035911,-1.992629591
0.789811969,-0.424993426,-0.442241699,-0.033099234,0.341116488,-0.01285255,-2.456218958,-0.115911439,0.229082078,0.438954622,1.06035911,-1.992629591
0.789811969,-0.424993426,-0.442241699,-0.033099234,0.341116488,-0.01285255,-2.456218958,-0.115911439,0.229082078,0.438954622,1.06035911,-1.992629591
0.789811969,-0.424993426,-0.442241699,-0.033099234,0.341116488,-0.01285255,-2.456218958,-0.115911439,0.229082078,0.438954622,1.06035911,-1.992629591
0.789811969,-0.424993426,-0.442241699,-0.033099234,0.341116488,-0.01285255,-2.456218958,-0.115911439,0.229082078,0.438954622,1.06035911,-1.992629591
0.789811969,-0.424993426,-0.442241699,-0.033099234,0.341116488,-0.01285255,-2.456218958,-0.115911439,0.229082078,0.438954622,1.06035911,-1.992629591
0.784235895,-0.394507617,-0.478892237,0.025348485,-0.011390895,0.10744673,-2.549811602,-0.116698377,0.460213929,0.405531936,1.022584058,-1.906106316
0.784235895,-0.394507617,-0.478892237,0.025348485,-0.011390895,0.10744673,-2.549811602,-0.116698377,0.460213929,0.405531936,1.022584058,-1.906106316
0.784235895,-0.394507617,-0.478892237,0.025348485,-0.011390895,0.10744673,-2.549811602,-0.116698377,0.460213929,0.405531936,1.022584058,-1.906106316
0.784235895,-0.394507617,-0.478892237,0.025348485,-0.011390895,0.10744673,-2.549811602,-0.116698377,0.460213929,0.405531936,1.022584058,-1.906106316
0.784235895,-0.394507617,-0.478892237,0.025348485,-0.011390895,0.10744673,-2.549811602,-0.116698377,0.460213929,0.405531936,1.022584058,-1.906106316
0.784235895,-0.394507617,-0.478892237,0.025348485,-0.011390895,0.10744673,-2.549811602,-0.116698377,0.460213929,0.405531936,1.022584058,-1.906106316
0.779989362,-0.344141036,-0.522669673,-0.010901749,0.034678072,0.103204846,-2.609979153,0.098052472,0.16554907,0.3513238,0.980421611,-1.783389746
0.771392882,-0.28283757,-0.570049047,0.006025851,-0.196913481,0.110880792,-2.633223057,0.353766173,0.335448146,0.286751199,0.934381091,-1.640461915
0.771392882,-0.28283757,-0.570049047,0.006025851,-0.196913481,0.110880792,-2.633223057,0.353766173,0.335448146,0.286751199,0.934381091,-1.640461915
0.771392882,-0.28283757,-0.570049047,0.006025851,-0.196913481,0.110880792,-2.633223057,0.353766173,0.335448146,0.286751199,0.934381091,-1.640461915
0.771392882,-0.28283757,-0.570049047,0.006025851,-0.196913481,0.110880792,-2.633223057,0.353766173,0.335448146,0.286751199,0.934381091,-1.640461915
0.770710886,-0.263766825,-0.580027521,0.046014547,0.183689147,0.005838513,-0.444791406,-0.028715376,0.568060398,0.266925236,0.925641141,-1.579470917
0.770710886,-0.263766825,-0.580027521,0.046014547,0.183689147,0.005838513,-0.444791406,-0.028715376,0.568060398,0.266925236,0.925641141,-1.579470917
0.770710886,-0.263766825,-0.580027521,0.046014547,0.183689147,0.005838513,-0.444791406,-0.028715376,0.568060398,0.266925236,0.925641141,-1.579470917
0.770710886,-0.263766825,-0.580027521,0.046014547,0.183689147,0.005838513,-0.444791406,-0.028715376,0.568060398,0.266925236,0.925641141,-1.579470917
0.770710886,-0.263766825,-0.580027521,0.046014547,0.183689147,0.005838513,-0.444791406,-0.028715376,0.568060398,0.266925236,0.925641141,-1.579470917
0.770710886,-0.263766825,-0.580027521,0.046014547,0.183689147,0.005838513,-0.444791406,-0.028715376,0.568060398,0.266925236,0.925641141,-1.579470917
0.770710886,-0.263766825,-0.580027521,0.046014547,0.183689147,0.005838513,-0.444791406,-0.028715376,0.568060398,0.266925236,0.925641141,-1.579470917
0.770710886,-0.263766825,-0.580027521,0.046014547,0.183689147,0.005838513,-0.444791406,-0.028715376,0.568060398,0.266925236,0.925641141,-1.579470917
0.770710886,-0.263766825,-0.580027521,0.046014547,0.183689147,0.005838513,-0.444791406,-0.028715376,0.568060398,0.266925236,0.925641141,-1.579470917
0.764525831,-0.265229136,-0.58749789,-0.033615589,-0.030195922,-0.021221578,-0.92084527,0.161065578,0.405056715,0.268441568,0.915593024,-1.547275481
0.764525831,-0.265229136,-0.58749789,-0.033615589,-0.030195922,-0.021221578,-0.92084527,0.161065578,0.405056715,0.268441568,0.915593024,-1.547275481
0.764525831,-0.265229136,-0.58749789,-0.033615589,-0.030195922,-0.021221578,-0.92084527,0.161065578,0.405056715,0.268441568,0.915593024,-1.547275481
0.764525831,-0.265229136,-0.58749789,-0.033615589,-0.030195922,-0.021221578,-0.92084527,0.161065578,0.405056715,0.268441568,0.915593024,-1.547275481
0.764525831,-0.265229136,-0.58749789,-0.033615589,-0.030195922,-0.021221578,-0.92084527,0.161065578,0.405056715,0.268441568,0.915593024,-1.547275481
0.764525831,-0.265229136,-0.58749789,-0.033615589,-0.030195922,-0.021221578,-0.92084527,0.161065578,0.405056715,0.268441568,0.915593024,-1.547275481
0.764525831,-0.265229136,-0.58749789,-0.033615589,-0.030195922,-0.021221578,-0.92084527,0.161065578,0.405056715,0.268441568,0.915593024,-1.547275481
0.764525831,-0.265229136,-0.58749789,-0.033615589,-0.030195922,-0.021221578,-0.92084527,0.161065578,0.405056715,0.268441568,0.915593024,-1.547275481
0.764525831,-0.265229136,-0.58749789,-0.033615589,-0.030195922,-0.021221578,-0.92084527,0.161065578,0.405056715,0.268441568,0.915593024,-1.547275481
0.761193514,-0.226562724,-0.607662559,-0.022516608,-0.077559829,0.057857275,-0.590730309,0.252931833,0.054664951,0.228547186,0.897091371,-1.444840396
0.764420629,-0.222291991,-0.605183899,0.029325485,0.088762641,0.060139477,-0.00014199,0.08522328,0.083722167,0.224164648,0.901143248,-1.435034819
0.764420629,-0.222291991,-0.605183899,0.029325485,0.088762641,0.060139477,-0.00014199,0.08522328,0.083722167,0.224164648,0.901143248,-1.435034819
0.776853025,-0.181772023,-0.602875113,-0.007215858,0.16263777,-0.004470944,-1.011589527,0.264747024,-0.136437535,0.182788198,0.910831927,-1.387803736
0.776853025,-0.181772023,-0.602875113,-0.007215858,0.16263777,-0.004470944,-1.011589527,0.264747024,-0.136437535,0.182788198,0.910831927,-1.387803736
0.781926334,-0.152813509,-0.604350328,-0.050909221,0.109692425,0.008661985,-0.650325418,0.05495951,-0.461342543,0.153414596,0.912800005,-1.369983008
0.781926334,-0.152813509,-0.604350328,-0.050909221,0.109692425,0.008661985,-0.650325418,0.05495951,-0.461342543,0.153414596,0.912800005,-1.369983008
0.781926334,-0.152813509,-0.604350328,-0.050909221,0.109692425,0.008661985,-0.650325418,0.05495951,-0.461342543,0.153414596,0.912800005,-1.369983008
0.788680792,-0.121136546,-0.602750778,0.008421957,-0.315722317,-0.048754334,-0.946477234,0.295985699,-0.322478205,0.121434779,0.918236265,-1.350829447
0.797614157,-0.096596457,-0.595383048,0.029930115,0.238579631,0.040832341,-0.261677742,0.281809151,-0.236023232,0.096747316,0.929567889,-1.34066447
0.807686925,-0.076657169,-0.584607244,-0.09661305,0.100018501,0.025128007,-1.018667936,0.531179905,0.079493389,0.076732444,0.944272322,-1.324408852
0.807686925,-0.076657169,-0.584607244,-0.09661305,0.100018501,0.025128007,-1.018667936,0.531179905,0.079493389,0.076732444,0.944272322,-1.324408852
0.807686925,-0.076657169,-0.584607244,-0.09661305,0.100018501,0.025128007,-1.018667936,0.531179905,0.079493389,0.076732444,0.944272322,-1.324408852
0.8141101,-0.063040823,-0.577278674,-0.039544821,0.149222612,0.022514164,-1.684634209,0.068840906,1.280393481,0.063082652,0.953994622,-1.263337467
0.8141101,-0.063040823,-0.577278674,-0.039544821,0.149222612,0.022514164,-1.684634209,0.068840906,1.280393481,0.063082652,0.953994622,-1.263337467
0.8141101,-0.063040823,-0.577278674,-0.039544821,0.149222612,0.022514164,-1.684634209,0.068840906,1.280393481,0.063082652,0.953994622,-1.263337467
0.807934582,-0.082765669,-0.583430946,-0.13914305,0.191927224,0.08632946,-0.794138014,-0.14539519,1.968053937,0.082860456,0.94537424,-1.190483653
0.807934582,-0.082765669,-0.583430946,-0.13914305,0.191927224,0.08632946,-0.794138014,-0.14539519,1.968053937,0.082860456,0.94537424,-1.190483653
0.793305874,-0.105408758,-0.599628866,-0.053072989,0.009629607,-0.010219932,-2.575095415,-0.427672744,1.92773962,0.105604937,0.923554799,-1.088961015
0.793305874,-0.105408758,-0.599628866,-0.053072989,0.009629607,-0.010219932,-2.575095415,-0.427672744,1.92773962,0.105604937,0.923554799,-1.088961015
0.793305874,-0.105408758,-0.599628866,-0.053072989,0.009629607,-0.010219932,-2.575095415,-0.427672744,1.92773962,0.105604937,0.923554799,-1.088961015
0.768301547,-0.08150664,-0.634877443,-0.103752434,0.108850628,0.182163596,-4.125842571,-1.005021334,2.002195358,0.081597158,0.88020015,-0.935106935
0.768301547,-0.08150664,-0.634877443,-0.103752434,0.108850628,0.182163596,-4.125842571,-1.005021334,2.002195358,0.081597158,0.88020015,-0.935106935
0.768301547,-0.08150664,-0.634877443,-0.103752434,0.108850628,0.182163596,-4.125842571,-1.005021334,2.002195358,0.081597158,0.88020015,-0.935106935
0.768301547,-0.08150664,-0.634877443,-0.103752434,0.108850628,0.182163596,-4.125842571,-1.005021334,2.002195358,0.081597158,0.88020015,-0.935106935
0.678613484,-0.035805125,-0.733622372,-0.14374876,0.115410373,0.228113294,-1.195770502,-1.881632805,2.442211628,0.035812778,0.746466245,-0.631556377
0.678613484,-0.035805125,-0.733622372,-0.14374876,0.115410373,0.228113294,-1.195770502,-1.881632805,2.442211628,0.035812778,0.746466245,-0.631556377
0.678613484,-0.035805125,-0.733622372,-0.14374876,0.115410373,0.228113294,-1.195770502,-1.881632805,2.442211628,0.035812778,0.746466245,-0.631556377
0.609540939,-0.054212108,-0.7908988,-0.112472057,-0.138094217,-0.078532219,-1.996737361,-2.358782291,2.628201008,0.054238698,0.656614275,-0.511584421
0.609540939,-0.054212108,-0.7908988,-0.112472057,-0.138094217,-0.078532219,-1.996737361,-2.358782291,2.628201008,0.054238698,0.656614275,-0.511584421
0.522630394,-0.050121788,-0.851084769,-0.043551385,-0.145114213,-0.048711061,-1.66653347,-2.558880806,2.253504038,0.050142796,0.550704954,-0.391986451
0.522630394,-0.050121788,-0.851084769,-0.043551385,-0.145114213,-0.048711061,-1.66653347,-2.558880806,2.253504038,0.050142796,0.550704954,-0.391986451
0.522630394,-0.050121788,-0.851084769,-0.043551385,-0.145114213,-0.048711061,-1.66653347,-2.558880806,2.253504038,0.050142796,0.550704954,-0.391986451
0.522630394,-0.050121788,-0.851084769,-0.043551385,-0.145114213,-0.048711061,-1.66653347,-2.558880806,2.253504038,0.050142796,0.550704954,-0.391986451
0.522630394,-0.050121788,-0.851084769,-0.043551385,-0.145114213,-0.048711061,-1.66653347,-2.558880806,2.253504038,0.050142796,0.550704954,-0.391986451
0.522630394,-0.050121788,-0.851084769,-0.043551385,-0.145114213,-0.048711061,-1.66653347,-2.558880806,2.253504038,0.050142796,0.550704954,-0.391986451
0.42383948,-0.009680488,-0.905685604,-0.050702244,-0.308983982,-0.226440549,-2.772055149,-2.812400103,2.292962074,0.009680639,0.437702127,-0.266316742
0.42383948,-0.009680488,-0.905685604,-0.050702244,-0.308983982,-0.226440549,-2.772055149,-2.812400103,2.292962074,0.009680639,0.437702127,-0.266316742
0.42383948,-0.009680488,-0.905685604,-0.050702244,-0.308983982,-0.226440549,-2.772055149,-2.812400103,2.292962074,0.009680639,0.437702127,-0.266316742
0.42383948,-0.009680488,-0.905685604,-0.050702244,-0.308983982,-0.226440549,-2.772055149,-2.812400103,2.292962074,0.009680639,0.437702127,-0.266316742
0.42383948,-0.009680488,-0.905685604,-0.050702244,-0.308983982,-0.226440549,-2.772055149,-2.812400103,2.292962074,0.009680639,0.437702127,-0.266316742
0.327006936,0.028916057,-0.944579482,0.059924453,0.347182542,0.152297199,-0.61808008,-2.611064434,1.505406618,-0.028920089,0.333279396,-0.161857035
0.327006936,0.028916057,-0.944579482,0.059924453,0.347182542,0.152297199,-0.61808008,-2.611064434,1.505406618,-0.028920089,0.333279396,-0.161857035
0.327006936,0.028916057,-0.944579482,0.059924453,0.347182542,0.152297199,-0.61808008,-2.611064434,1.505406618,-0.028920089,0.333279396,-0.161857035
0.327006936,0.028916057,-0.944579482,0.059924453,0.347182542,0.152297199,-0.61808008,-2.611064434,1.505406618,-0.028920089,0.333279396,-0.161857035
0.218119547,0.007745021,-0.975891352,-0.09308967,-0.339486301,-0.191116214,-0.040421542,-2.990607023,1.382911921,-0.007745098,0.219893905,-0.111623627
0.218119547,0.007745021,-0.975891352,-0.09308967,-0.339486301,-0.191116214,-0.040421542,-2.990607023,1.382911921,-0.007745098,0.219893905,-0.111623627
0.218119547,0.007745021,-0.975891352,-0.09308967,-0.339486301,-0.191116214,-0.040421542,-2.990607023,1.382911921,-0.007745098,0.219893905,-0.111623627
0.218119547,0.007745021,-0.975891352,-0.09308967,-0.339486301,-0.191116214,-0.040421542,-2.990607023,1.382911921,-0.007745098,0.219893905,-0.111623627
0.218119547,0.007745021,-0.975891352,-0.09308967,-0.339486301,-0.191116214,-0.040421542,-2.990607023,1.382911921,-0.007745098,0.219893905,-0.111623627
0.122505866,0.017542789,-0.992312729,-0.111336842,0.070057921,0.162082016,-0.280901253,-1.802581906,0.906652689,-0.017543689,0.122833374,-0.055563176
0.122505866,0.017542789,-0.992312729,-0.111336842,0.070057921,0.162082016,-0.280901253,-1.802581906,0.906652689,-0.017543689,0.122833374,-0.055563176
0.050835222,-0.021811109,-0.998468876,0.045035612,0.004721398,-0.078710079,1.409213781,-2.092446566,0.509947002,0.021812839,0.050869253,-0.043537269
0.050835222,-0.021811109,-0.998468876,0.045035612,0.004721398,-0.078710079,1.409213781,-2.092446566,0.509947002,0.021812839,0.050869253,-0.043537269
0.050835222,-0.021811109,-0.998468876,0.045035612,0.004721398,-0.078710079,1.409213781,-2.092446566,0.509947002,0.021812839,0.050869253,-0.043537269
0.050835222,-0.021811109,-0.998468876,0.045035612,0.004721398,-0.078710079,1.409213781,-2.092446566,0.509947002,0.021812839,0.050869253,-0.043537269
0.050835222,-0.021811109,-0.998468876,0.045035612,0.004721398,-0.078710079,1.409213781,-2.092446566,0.509947002,0.021812839,0.050869253,-0.043537269
-0.020934219,-0.030000696,-0.99933064,-0.250504285,-0.305402607,-0.505445361,-0.790614188,-1.255941033,1.15514636,0.030005199,-0.020945177,-0.008585006
-0.020934219,-0.030000696,-0.99933064,-0.250504285,-0.305402607,-0.505445361,-0.790614188,-1.255941033,1.15514636,0.030005199,-0.020945177,-0.008585006
-0.020934219,-0.030000696,-0.99933064,-0.250504285,-0.305402607,-0.505445361,-0.790614188,-1.255941033,1.15514636,0.030005199,-0.020945177,-0.008585006
-0.020934219,-0.030000696,-0.99933064,-0.250504285,-0.305402607,-0.505445361,-0.790614188,-1.255941033,1.15514636,0.030005199,-0.020945177,-0.008585006
-0.020934219,-0.030000696,-0.99933064,-0.250504285,-0.305402607,-0.505445361,-0.790614188,-1.255941033,1.15514636,0.030005199,-0.020945177,-0.008585006
-0.020934219,-0.030000696,-0.99933064,-0.250504285,-0.305402607,-0.505445361,-0.790614188,-1.255941033,1.15514636,0.030005199,-0.020945177,-0.008585006
-0.068892494,-0.038041335,-0.996898532,0.073226258,0.227921888,0.065715671,1.789515615,-1.182993293,0.357038319,0.038050515,-0.068997131,0.026071892
-0.068892494,-0.038041335,-0.996898532,0.073226258,0.227921888,0.065715671,1.789515615,-1.182993293,0.357038319,0.038050515,-0.068997131,0.026071892
-0.068892494,-0.038041335,-0.996898532,0.073226258,0.227921888,0.065715671,1.789515615,-1.182993293,0.357038319,0.038050515,-0.068997131,0.026071892
-0.068892494,-0.038041335,-0.996898532,0.073226258,0.227921888,0.065715671,1.789515615,-1.182993293,0.357038319,0.038050515,-0.068997131,0.026071892
-0.068892494,-0.038041335,-0.996898532,0.073226258,0.227921888,0.065715671,1.789515615,-1.182993293,0.357038319,0.038050515,-0.068997131,0.026071892
-0.068892494,-0.038041335,-0.996898532,0.073226258,0.227921888,0.065715671,1.789515615,-1.182993293,0.357038319,0.038050515,-0.068997131,0.026071892
-0.068892494,-0.038041335,-0.996898532,0.073226258,0.227921888,0.065715671,1.789515615,-1.182993293,0.357038319,0.038050515,-0.068997131,0.026071892
-0.116334409,-0.135915548,-0.983866513,-0.117948614,-0.150262535,-0.189336061,2.143542051,-0.979930401,0.181056485,0.136337527,-0.117695588,0.041527834
-0.116334409,-0.135915548,-0.983866513,-0.117948614,-0.150262535,-0.189336061,2.143542051,-0.979930401,0.181056485,0.136337527,-0.117695588,0.041527834
-0.116334409,-0.135915548,-0.983866513,-0.117948614,-0.150262535,-0.189336061,2.143542051,-0.979930401,0.181056485,0.136337527,-0.117695588,0.041527834
-0.132051334,-0.16634208,-0.977186143,-0.222928643,-0.292504311,-0.250673413,1.113885283,-0.305764407,0.123174936,0.167118896,-0.134320582,0.051221646
-0.132051334,-0.16634208,-0.977186143,-0.222928643,-0.292504311,-0.250673413,1.113885283,-0.305764407,0.123174936,0.167118896,-0.134320582,0.051221646
-0.132051334,-0.16634208,-0.977186143,-0.222928643,-0.292504311,-0.250673413,1.113885283,-0.305764407,0.123174936,0.167118896,-0.134320582,0.051221646
-0.131391168,-0.176348537,-0.975519121,-0.061387882,-0.326565206,-0.020040691,-0.085057385,0.195303828,-0.204714045,0.177275609,-0.133882744,0.050580893
-0.131391168,-0.176348537,-0.975519121,-0.061387882,-0.326565206,-0.020040691,-0.085057385,0.195303828,-0.204714045,0.177275609,-0.133882744,0.050580893
-0.131391168,-0.176348537,-0.975519121,-0.061387882,-0.326565206,-0.020040691,-0.085057385,0.195303828,-0.204714045,0.177275609,-0.133882744,0.050580893
-0.127165049,-0.172039852,-0.976847649,-0.000947252,-0.190370977,0.157389522,-0.231595099,0.148517385,0.133742303,0.172900028,-0.129451031,0.048726041
-0.127165049,-0.172039852,-0.976847649,-0.000947252,-0.190370977,0.157389522,-0.231595099,0.148517385,0.133742303,0.172900028,-0.129451031,0.048726041
-0.127165049,-0.172039852,-0.976847649,-0.000947252,-0.190370977,0.157389522,-0.231595099,0.148517385,0.133742303,0.172900028,-0.129451031,0.048726041
-0.126536474,-0.169349849,-0.97739917,0.049556389,0.102608591,0.037854373,0.008919123,-0.001810393,0.254928708,0.170169951,-0.128746327,0.052866192
-0.127194151,-0.17099002,-0.977028191,0.043744355,0.085251585,-0.06365186,0.159091517,0.032529458,0.136779964,0.171834401,-0.129456663,0.057155403
-0.125797376,-0.171513662,-0.97711724,0.005970612,-0.004465252,0.028707087,-0.076811068,0.120229043,0.105399765,0.17236589,-0.128039069,0.059560231
-0.125797376,-0.171513662,-0.97711724,0.005970612,-0.004465252,0.028707087,-0.076811068,0.120229043,0.105399765,0.17236589,-0.128039069,0.059560231
-0.124029927,-0.169670239,-0.977664888,0.017173104,-0.033942387,0.042300999,-0.085584477,0.097280771,0.132260308,0.170495047,-0.126189341,0.061615964
-0.124029927,-0.169670239,-0.977664888,0.017173104,-0.033942387,0.042300999,-0.085584477,0.097280771,0.132260308,0.170495047,-0.126189341,0.061615964
-0.124029927,-0.169670239,-0.977664888,0.017173104,-0.033942387,0.042300999,-0.085584477,0.097280771,0.132260308,0.170495047,-0.126189341,0.061615964
-0.124029927,-0.169670239,-0.977664888,0.017173104,-0.033942387,0.042300999,-0.085584477,0.097280771,0.132260308,0.170495047,-0.126189341,0.061615964
-0.122686505,-0.168103039,-0.978105009,0.002264619,-0.002245426,0.000642121,-0.028455546,0.075511582,0.076483853,0.168905013,-0.124781172,0.063720403
-0.121494122,-0.167632282,-0.978334606,-0.010722786,0.005828783,-0.016065538,-0.022848805,0.061260875,0.022176087,0.16842748,-0.12355209,0.064604313
-0.121494122,-0.167632282,-0.978334606,-0.010722786,0.005828783,-0.016065538,-0.022848805,0.061260875,0.022176087,0.16842748,-0.12355209,0.064604313
-0.12059854,-0.167032063,-0.97854805,-0.005713217,-0.017125577,-0.009275556,-0.051250488,0.033516038,-0.035714909,0.167818677,-0.122623994,0.064428482
-0.12059854,-0.167032063,-0.97854805,-0.005713217,-0.017125577,-0.009275556,-0.051250488,0.033516038,-0.035714909,0.167818677,-0.122623994,0.064428482
-0.12059854,-0.167032063,-0.97854805,-0.005713217,-0.017125577,-0.009275556,-0.051250488,0.033516038,-0.035714909,0.167818677,-0.122623994,0.064428482
-0.12059854,-0.167032063,-0.97854805,-0.005713217,-0.017125577,-0.009275556,-0.051250488,0.033516038,-0.035714909,0.167818677,-0.122623994,0.064428482
-0.119259104,-0.168711618,-0.978424072,-0.017642207,-0.011585459,0.013702273,-0.026111672,0.061455514,-0.083322212,0.169522402,-0.121290664,0.062941734
-0.119259104,-0.168711618,-0.978424072,-0.017642207,-0.011585459,0.013702273,-0.026111672,0.061455514,-0.083322212,0.169522402,-0.121290664,0.062941734
-0.117829286,-0.168910116,-0.97856307,-0.001722813,-0.004612088,0.009812951,-0.050269097,0.045782473,-0.091702491,0.169723786,-0.1198336,0.06114583
-0.117829286,-0.168910116,-0.97856307,-0.001722813,-0.004612088,0.009812951,-0.050269097,0.045782473,-0.091702491,0.169723786,-0.1198336,0.06114583
-0.117829286,-0.168910116,-0.97856307,-0.001722813,-0.004612088,0.009812951,-0.050269097,0.045782473,-0.091702491,0.169723786,-0.1198336,0.06114583
-0.117712036,-0.167649448,-0.978793919,0.004232965,-0.018918991,0.003162086,-0.065473035,0.020408554,-0.075451665,0.168444882,-0.119687519,0.059302812
-0.117712036,-0.167649448,-0.978793919,0.004232965,-0.018918991,0.003162086,-0.065473035,0.020408554,-0.075451665,0.168444882,-0.119687519,0.059302812
-0.117936999,-0.166203707,-0.979013383,0.007189251,-0.037317246,-0.005193889,-0.153881118,-0.013019964,-0.100131981,0.166978569,-0.119887453,0.057375388
-0.117936999,-0.166203707,-0.979013383,0.007189251,-0.037317246,-0.005193889,-0.153881118,-0.013019964,-0.100131981,0.166978569,-0.119887453,0.057375388
-0.117936999,-0.166203707,-0.979013383,0.007189251,-0.037317246,-0.005193889,-0.153881118,-0.013019964,-0.100131981,0.166978569,-0.119887453,0.057375388
-0.117936999,-0.166203707,-0.979013383,0.007189251,-0.037317246,-0.005193889,-0.153881118,-0.013019964,-0.100131981,0.166978569,-0.119887453,0.057375388
-0.118475139,-0.163739756,-0.979363561,-0.003381006,-0.054521203,0.02021122,-0.195378661,0.028262157,-0.055683393,0.16448039,-0.12038659,0.055531557
-0.118475139,-0.163739756,-0.979363561,-0.003381006,-0.054521203,0.02021122,-0.195378661,0.028262157,-0.055683393,0.16448039,-0.12038659,0.055531557
-0.117982931,-0.161069065,-0.97986567,0.001650468,-0.023439467,0.040534556,-0.158100575,0.050812859,-0.0103369,0.161773767,-0.119830376,0.054452005
-0.117453739,-0.159974933,-0.9801085,0.020560965,0.012224823,-0.000162005,-0.077514514,-0.025589831,0.004426653,0.160665252,-0.119268721,0.054122377
-0.117453739,-0.159974933,-0.9801085,0.020560965,0.012224823,-0.000162005,-0.077514514,-0.025589831,0.004426653,0.160665252,-0.119268721,0.054122377
-0.117453739,-0.159974933,-0.9801085,0.020560965,0.012224823,-0.000162005,-0.077514514,-0.025589831,0.004426653,0.160665252,-0.119268721,0.054122377
-0.118220985,-0.160282627,-0.979965985,0.010006189,-0.003596008,-0.004500687,-0.08783453,-0.060194679,0.007861065,0.160976981,-0.120057671,0.054173451
-0.118220985,-0.160282627,-0.979965985,0.010006189,-0.003596008,-0.004500687,-0.08783453,-0.060194679,0.007861065,0.160976981,-0.120057671,0.054173451
-0.118220985,-0.160282627,-0.979965985,0.010006189,-0.003596008,-0.004500687,-0.08783453,-0.060194679,0.007861065,0.160976981,-0.120057671,0.054173451
-0.119004041,-0.161360011,-0.979694307,-0.010130517,-0.018448785,0.021457553,-0.066527486,-0.012460906,-0.015944559,0.16206857,-0.120878381,0.053807414