gravityX,gravityY,gravityZ,accelX,accelY,accelZ,rotRateX,rotRatY,rotRateZ,attPitch,attRoll,attYaw
-0.968515456,-0.160501853,-0.190307468,0.005533338,0.01644361,-0.005035579,-0.275112063,0.270523727,-0.042534195,0.16119908,-1.376774199,0.132699725
-0.968515456,-0.160501853,-0.190307468,0.005533338,0.01644361,-0.005035579,-0.275112063,0.270523727,-0.042534195,0.16119908,-1.376774199,0.132699725
-0.968515456,-0.160501853,-0.190307468,0.005533338,0.01644361,-0.005035579,-0.275112063,0.270523727,-0.042534195,0.16119908,-1.376774199,0.132699725
-0.968515456,-0.160501853,-0.190307468,0.005533338,0.01644361,-0.005035579,-0.275112063,0.270523727,-0.042534195,0.16119908,-1.376774199,0.132699725
-0.968515456,-0.160501853,-0.190307468,0.005533338,0.01644361,-0.005035579,-0.275112063,0.270523727,-0.042534195,0.16119908,-1.376774199,0.132699725
-0.968515456,-0.160501853,-0.190307468,0.005533338,0.01644361,-0.005035579,-0.275112063,0.270523727,-0.042534195,0.16119908,-1.376774199,0.132699725
-0.968515456,-0.160501853,-0.190307468,0.005533338,0.01644361,-0.005035579,-0.275112063,0.270523727,-0.042534195,0.16119908,-1.376774199,0.132699725
-0.968515456,-0.160501853,-0.190307468,0.005533338,0.01644361,-0.005035579,-0.275112063,0.270523727,-0.042534195,0.16119908,-1.376774199,0.132699725
-0.966130435,-0.159376368,-0.202955782,0.059895694,0.026441798,0.005232394,-0.271810174,0.207487315,-0.072485492,0.160058916,-1.363736337,0.118211163
-0.966130435,-0.159376368,-0.202955782,0.059895694,0.026441798,0.005232394,-0.271810174,0.207487315,-0.072485492,0.160058916,-1.363736337,0.118211163
-0.966130435,-0.159376368,-0.202955782,0.059895694,0.026441798,0.005232394,-0.271810174,0.207487315,-0.072485492,0.160058916,-1.363736337,0.118211163
-0.966130435,-0.159376368,-0.202955782,0.059895694,0.026441798,0.005232394,-0.271810174,0.207487315,-0.072485492,0.160058916,-1.363736337,0.118211163
-0.966130435,-0.159376368,-0.202955782,0.059895694,0.026441798,0.005232394,-0.271810174,0.207487315,-0.072485492,0.160058916,-1.363736337,0.118211163
-0.966130435,-0.159376368,-0.202955782,0.059895694,0.026441798,0.005232394,-0.271810174,0.207487315,-0.072485492,0.160058916,-1.363736337,0.118211163
-0.966130435,-0.159376368,-0.202955782,0.059895694,0.026441798,0.005232394,-0.271810174,0.207487315,-0.072485492,0.160058916,-1.363736337,0.118211163
-0.966130435,-0.159376368,-0.202955782,0.059895694,0.026441798,0.005232394,-0.271810174,0.207487315,-0.072485492,0.160058916,-1.363736337,0.118211163
-0.966130435,-0.159376368,-0.202955782,0.059895694,0.026441798,0.005232394,-0.271810174,0.207487315,-0.072485492,0.160058916,-1.363736337,0.118211163
-0.966130435,-0.159376368,-0.202955782,0.059895694,0.026441798,0.005232394,-0.271810174,0.207487315,-0.072485492,0.160058916,-1.363736337,0.118211163
-0.966130435,-0.159376368,-0.202955782,0.059895694,0.026441798,0.005232394,-0.271810174,0.207487315,-0.072485492,0.160058916,-1.363736337,0.118211163
-0.966130435,-0.159376368,-0.202955782,0.059895694,0.026441798,0.005232394,-0.271810174,0.207487315,-0.072485492,0.160058916,-1.363736337,0.118211163
-0.966130435,-0.159376368,-0.202955782,0.059895694,0.026441798,0.005232394,-0.271810174,0.207487315,-0.072485492,0.160058916,-1.363736337,0.118211163
-0.964622855,-0.162228882,-0.207809016,0.047950804,0.037533998,-0.006088376,0.243636623,0.056667797,-0.038816106,0.162949033,-1.358608889,0.117358993
-0.964622855,-0.162228882,-0.207809016,0.047950804,0.037533998,-0.006088376,0.243636623,0.056667797,-0.038816106,0.162949033,-1.358608889,0.117358993
-0.964622855,-0.162228882,-0.207809016,0.047950804,0.037533998,-0.006088376,0.243636623,0.056667797,-0.038816106,0.162949033,-1.358608889,0.117358993
-0.964622855,-0.162228882,-0.207809016,0.047950804,0.037533998,-0.006088376,0.243636623,0.056667797,-0.038816106,0.162949033,-1.358608889,0.117358993
-0.964622855,-0.162228882,-0.207809016,0.047950804,0.037533998,-0.006088376,0.243636623,0.056667797,-0.038816106,0.162949033,-1.358608889,0.117358993
-0.964622855,-0.162228882,-0.207809016,0.047950804,0.037533998,-0.006088376,0.243636623,0.056667797,-0.038816106,0.162949033,-1.358608889,0.117358993
-0.964622855,-0.162228882,-0.207809016,0.047950804,0.037533998,-0.006088376,0.243636623,0.056667797,-0.038816106,0.162949033,-1.358608889,0.117358993
-0.964622855,-0.162228882,-0.207809016,0.047950804,0.037533998,-0.006088376,0.243636623,0.056667797,-0.038816106,0.162949033,-1.358608889,0.117358993
-0.964622855,-0.162228882,-0.207809016,0.047950804,0.037533998,-0.006088376,0.243636623,0.056667797,-0.038816106,0.162949033,-1.358608889,0.117358993
-0.964622855,-0.162228882,-0.207809016,0.047950804,0.037533998,-0.006088376,0.243636623,0.056667797,-0.038816106,0.162949033,-1.358608889,0.117358993
-0.964622855,-0.162228882,-0.207809016,0.047950804,0.037533998,-0.006088376,0.243636623,0.056667797,-0.038816106,0.162949033,-1.358608889,0.117358993
-0.964622855,-0.162228882,-0.207809016,0.047950804,0.037533998,-0.006088376,0.243636623,0.056667797,-0.038816106,0.162949033,-1.358608889,0.117358993
-0.964622855,-0.162228882,-0.207809016,0.047950804,0.037533998,-0.006088376,0.243636623,0.056667797,-0.038816106,0.162949033,-1.358608889,0.117358993
-0.964622855,-0.162228882,-0.207809016,0.047950804,0.037533998,-0.006088376,0.243636623,0.056667797,-0.038816106,0.162949033,-1.358608889,0.117358993
-0.964622855,-0.162228882,-0.207809016,0.047950804,0.037533998,-0.006088376,0.243636623,0.056667797,-0.038816106,0.162949033,-1.358608889,0.117358993
-0.964622855,-0.162228882,-0.207809016,0.047950804,0.037533998,-0.006088376,0.243636623,0.056667797,-0.038816106,0.162949033,-1.358608889,0.117358993
-0.964622855,-0.162228882,-0.207809016,0.047950804,0.037533998,-0.006088376,0.243636623,0.056667797,-0.038816106,0.162949033,-1.358608889,0.117358993
-0.964622855,-0.162228882,-0.207809016,0.047950804,0.037533998,-0.006088376,0.243636623,0.056667797,-0.038816106,0.162949033,-1.358608889,0.117358993
-0.964622855,-0.162228882,-0.207809016,0.047950804,0.037533998,-0.006088376,0.243636623,0.056667797,-0.038816106,0.162949033,-1.358608889,0.117358993
-0.964622855,-0.162228882,-0.207809016,0.047950804,0.037533998,-0.006088376,0.243636623,0.056667797,-0.038816106,0.162949033,-1.358608889,0.117358993
-0.964622855,-0.162228882,-0.207809016,0.047950804,0.037533998,-0.006088376,0.243636623,0.056667797,-0.038816106,0.162949033,-1.358608889,0.117358993
-0.964365065,-0.163915873,-0.207681537,0.010202467,-0.003366232,-0.024862409,-0.016826602,0.036813226,0.05221042,0.164658922,-1.358680185,0.126818345
-0.964365065,-0.163915873,-0.207681537,0.010202467,-0.003366232,-0.024862409,-0.016826602,0.036813226,0.05221042,0.164658922,-1.358680185,0.126818345
-0.964365065,-0.163915873,-0.207681537,0.010202467,-0.003366232,-0.024862409,-0.016826602,0.036813226,0.05221042,0.164658922,-1.358680185,0.126818345
-0.964365065,-0.163915873,-0.207681537,0.010202467,-0.003366232,-0.024862409,-0.016826602,0.036813226,0.05221042,0.164658922,-1.358680185,0.126818345
-0.964365065,-0.163915873,-0.207681537,0.010202467,-0.003366232,-0.024862409,-0.016826602,0.036813226,0.05221042,0.164658922,-1.358680185,0.126818345
-0.964365065,-0.163915873,-0.207681537,0.010202467,-0.003366232,-0.024862409,-0.016826602,0.036813226,0.05221042,0.164658922,-1.358680185,0.126818345
-0.964365065,-0.163915873,-0.207681537,0.010202467,-0.003366232,-0.024862409,-0.016826602,0.036813226,0.05221042,0.164658922,-1.358680185,0.126818345
-0.964365065,-0.163915873,-0.207681537,0.010202467,-0.003366232,-0.024862409,-0.016826602,0.036813226,0.05221042,0.164658922,-1.358680185,0.126818345
-0.964365065,-0.163915873,-0.207681537,0.010202467,-0.003366232,-0.024862409,-0.016826602,0.036813226,0.05221042,0.164658922,-1.358680185,0.126818345
-0.964365065,-0.163915873,-0.207681537,0.010202467,-0.003366232,-0.024862409,-0.016826602,0.036813226,0.05221042,0.164658922,-1.358680185,0.126818345
-0.964365065,-0.163915873,-0.207681537,0.010202467,-0.003366232,-0.024862409,-0.016826602,0.036813226,0.05221042,0.164658922,-1.358680185,0.126818345
-0.964365065,-0.163915873,-0.207681537,0.010202467,-0.003366232,-0.024862409,-0.016826602,0.036813226,0.05221042,0.164658922,-1.358680185,0.126818345
-0.964365065,-0.163915873,-0.207681537,0.010202467,-0.003366232,-0.024862409,-0.016826602,0.036813226,0.05221042,0.164658922,-1.358680185,0.126818345
-0.964365065,-0.163915873,-0.207681537,0.010202467,-0.003366232,-0.024862409,-0.016826602,0.036813226,0.05221042,0.164658922,-1.358680185,0.126818345
-0.964365065,-0.163915873,-0.207681537,0.010202467,-0.003366232,-0.024862409,-0.016826602,0.036813226,0.05221042,0.164658922,-1.358680185,0.126818345
-0.964365065,-0.163915873,-0.207681537,0.010202467,-0.003366232,-0.024862409,-0.016826602,0.036813226,0.05221042,0.164658922,-1.358680185,0.126818345
-0.964365065,-0.163915873,-0.207681537,0.010202467,-0.003366232,-0.024862409,-0.016826602,0.036813226,0.05221042,0.164658922,-1.358680185,0.126818345
-0.964365065,-0.163915873,-0.207681537,0.010202467,-0.003366232,-0.024862409,-0.016826602,0.036813226,0.05221042,0.164658922,-1.358680185,0.126818345
-0.964365065,-0.163915873,-0.207681537,0.010202467,-0.003366232,-0.024862409,-0.016826602,0.036813226,0.05221042,0.164658922,-1.358680185,0.126818345
-0.964365065,-0.163915873,-0.207681537,0.010202467,-0.003366232,-0.024862409,-0.016826602,0.036813226,0.05221042,0.164658922,-1.358680185,0.126818345
-0.964365065,-0.163915873,-0.207681537,0.010202467,-0.003366232,-0.024862409,-0.016826602,0.036813226,0.05221042,0.164658922,-1.358680185,0.126818345
-0.964420617,-0.143663645,-0.221931219,-0.011501014,-0.096524969,-0.060829401,-0.565193355,0.076318994,-0.029804502,0.144162473,-1.344615209,0.108760361
-0.964420617,-0.143663645,-0.221931219,-0.011501014,-0.096524969,-0.060829401,-0.565193355,0.076318994,-0.029804502,0.144162473,-1.344615209,0.108760361
-0.964420617,-0.143663645,-0.221931219,-0.011501014,-0.096524969,-0.060829401,-0.565193355,0.076318994,-0.029804502,0.144162473,-1.344615209,0.108760361
-0.964420617,-0.143663645,-0.221931219,-0.011501014,-0.096524969,-0.060829401,-0.565193355,0.076318994,-0.029804502,0.144162473,-1.344615209,0.108760361
-0.964420617,-0.143663645,-0.221931219,-0.011501014,-0.096524969,-0.060829401,-0.565193355,0.076318994,-0.029804502,0.144162473,-1.344615209,0.108760361
-0.964420617,-0.143663645,-0.221931219,-0.011501014,-0.096524969,-0.060829401,-0.565193355,0.076318994,-0.029804502,0.144162473,-1.344615209,0.108760361
-0.964420617,-0.143663645,-0.221931219,-0.011501014,-0.096524969,-0.060829401,-0.565193355,0.076318994,-0.029804502,0.144162473,-1.344615209,0.108760361
-0.964420617,-0.143663645,-0.221931219,-0.011501014,-0.096524969,-0.060829401,-0.565193355,0.076318994,-0.029804502,0.144162473,-1.344615209,0.108760361
-0.964420617,-0.143663645,-0.221931219,-0.011501014,-0.096524969,-0.060829401,-0.565193355,0.076318994,-0.029804502,0.144162473,-1.344615209,0.108760361
-0.964420617,-0.143663645,-0.221931219,-0.011501014,-0.096524969,-0.060829401,-0.565193355,0.076318994,-0.029804502,0.144162473,-1.344615209,0.108760361
-0.964420617,-0.143663645,-0.221931219,-0.011501014,-0.096524969,-0.060829401,-0.565193355,0.076318994,-0.029804502,0.144162473,-1.344615209,0.108760361
-0.964420617,-0.143663645,-0.221931219,-0.011501014,-0.096524969,-0.060829401,-0.565193355,0.076318994,-0.029804502,0.144162473,-1.344615209,0.108760361
-0.964420617,-0.143663645,-0.221931219,-0.011501014,-0.096524969,-0.060829401,-0.565193355,0.076318994,-0.029804502,0.144162473,-1.344615209,0.108760361
-0.964420617,-0.143663645,-0.221931219,-0.011501014,-0.096524969,-0.060829401,-0.565193355,0.076318994,-0.029804502,0.144162473,-1.344615209,0.108760361
-0.964420617,-0.143663645,-0.221931219,-0.011501014,-0.096524969,-0.060829401,-0.565193355,0.076318994,-0.029804502,0.144162473,-1.344615209,0.108760361
-0.964420617,-0.143663645,-0.221931219,-0.011501014,-0.096524969,-0.060829401,-0.565193355,0.076318994,-0.029804502,0.144162473,-1.344615209,0.108760361
-0.964420617,-0.143663645,-0.221931219,-0.011501014,-0.096524969,-0.060829401,-0.565193355,0.076318994,-0.029804502,0.144162473,-1.344615209,0.108760361
-0.964420617,-0.143663645,-0.221931219,-0.011501014,-0.096524969,-0.060829401,-0.565193355,0.076318994,-0.029804502,0.144162473,-1.344615209,0.108760361
-0.964420617,-0.143663645,-0.221931219,-0.011501014,-0.096524969,-0.060829401,-0.565193355,0.076318994,-0.029804502,0.144162473,-1.344615209,0.108760361
-0.964420617,-0.143663645,-0.221931219,-0.011501014,-0.096524969,-0.060829401,-0.565193355,0.076318994,-0.029804502,0.144162473,-1.344615209,0.108760361
-0.962126136,-0.150497094,-0.227297708,-0.024522483,-0.010452628,-0.061749518,-0.173328161,0.096438542,-0.131351575,0.151071076,-1.338804632,0.093169642
-0.962126136,-0.150497094,-0.227297708,-0.024522483,-0.010452628,-0.061749518,-0.173328161,0.096438542,-0.131351575,0.151071076,-1.338804632,0.093169642
-0.962126136,-0.150497094,-0.227297708,-0.024522483,-0.010452628,-0.061749518,-0.173328161,0.096438542,-0.131351575,0.151071076,-1.338804632,0.093169642
-0.962126136,-0.150497094,-0.227297708,-0.024522483,-0.010452628,-0.061749518,-0.173328161,0.096438542,-0.131351575,0.151071076,-1.338804632,0.093169642
-0.962126136,-0.150497094,-0.227297708,-0.024522483,-0.010452628,-0.061749518,-0.173328161,0.096438542,-0.131351575,0.151071076,-1.338804632,0.093169642
-0.962126136,-0.150497094,-0.227297708,-0.024522483,-0.010452628,-0.061749518,-0.173328161,0.096438542,-0.131351575,0.151071076,-1.338804632,0.093169642
-0.962126136,-0.150497094,-0.227297708,-0.024522483,-0.010452628,-0.061749518,-0.173328161,0.096438542,-0.131351575,0.151071076,-1.338804632,0.093169642
-0.962126136,-0.150497094,-0.227297708,-0.024522483,-0.010452628,-0.061749518,-0.173328161,0.096438542,-0.131351575,0.151071076,-1.338804632,0.093169642
-0.962126136,-0.150497094,-0.227297708,-0.024522483,-0.010452628,-0.061749518,-0.173328161,0.096438542,-0.131351575,0.151071076,-1.338804632,0.093169642
-0.962126136,-0.150497094,-0.227297708,-0.024522483,-0.010452628,-0.061749518,-0.173328161,0.096438542,-0.131351575,0.151071076,-1.338804632,0.093169642
-0.962126136,-0.150497094,-0.227297708,-0.024522483,-0.010452628,-0.061749518,-0.173328161,0.096438542,-0.131351575,0.151071076,-1.338804632,0.093169642
-0.962126136,-0.150497094,-0.227297708,-0.024522483,-0.010452628,-0.061749518,-0.173328161,0.096438542,-0.131351575,0.151071076,-1.338804632,0.093169642
-0.962126136,-0.150497094,-0.227297708,-0.024522483,-0.010452628,-0.061749518,-0.173328161,0.096438542,-0.131351575,0.151071076,-1.338804632,0.093169642
-0.962126136,-0.150497094,-0.227297708,-0.024522483,-0.010452628,-0.061749518,-0.173328161,0.096438542,-0.131351575,0.151071076,-1.338804632,0.093169642
-0.962126136,-0.150497094,-0.227297708,-0.024522483,-0.010452628,-0.061749518,-0.173328161,0.096438542,-0.131351575,0.151071076,-1.338804632,0.093169642
-0.962126136,-0.150497094,-0.227297708,-0.024522483,-0.010452628,-0.061749518,-0.173328161,0.096438542,-0.131351575,0.151071076,-1.338804632,0.093169642
-0.962126136,-0.150497094,-0.227297708,-0.024522483,-0.010452628,-0.061749518,-0.173328161,0.096438542,-0.131351575,0.151071076,-1.338804632,0.093169642
-0.962126136,-0.150497094,-0.227297708,-0.024522483,-0.010452628,-0.061749518,-0.173328161,0.096438542,-0.131351575,0.151071076,-1.338804632,0.093169642
-0.962126136,-0.150497094,-0.227297708,-0.024522483,-0.010452628,-0.061749518,-0.173328161,0.096438542,-0.131351575,0.151071076,-1.338804632,0.093169642
-0.962126136,-0.150497094,-0.227297708,-0.024522483,-0.010452628,-0.061749518,-0.173328161,0.096438542,-0.131351575,0.151071076,-1.338804632,0.093169642
-0.962126136,-0.150497094,-0.227297708,-0.024522483,-0.010452628,-0.061749518,-0.173328161,0.096438542,-0.131351575,0.151071076,-1.338804632,0.093169642
-0.962126136,-0.150497094,-0.227297708,-0.024522483,-0.010452628,-0.061749518,-0.173328161,0.096438542,-0.131351575,0.151071076,-1.338804632,0.093169642
-0.962126136,-0.150497094,-0.227297708,-0.024522483,-0.010452628,-0.061749518,-0.173328161,0.096438542,-0.131351575,0.151071076,-1.338804632,0.093169642
-0.95196557,-0.185035735,-0.243973956,0.006622553,0.020988479,0.017655611,0.247908384,0.059211213,-0.157939628,0.186108233,-1.319911711,0.090012492
-0.95196557,-0.185035735,-0.243973956,0.006622553,0.020988479,0.017655611,0.247908384,0.059211213,-0.157939628,0.186108233,-1.319911711,0.090012492
-0.95196557,-0.185035735,-0.243973956,0.006622553,0.020988479,0.017655611,0.247908384,0.059211213,-0.157939628,0.186108233,-1.319911711,0.090012492
-0.95196557,-0.185035735,-0.243973956,0.006622553,0.020988479,0.017655611,0.247908384,0.059211213,-0.157939628,0.186108233,-1.319911711,0.090012492
-0.95196557,-0.185035735,-0.243973956,0.006622553,0.020988479,0.017655611,0.247908384,0.059211213,-0.157939628,0.186108233,-1.319911711,0.090012492
-0.95196557,-0.185035735,-0.243973956,0.006622553,0.020988479,0.017655611,0.247908384,0.059211213,-0.157939628,0.186108233,-1.319911711,0.090012492
-0.95196557,-0.185035735,-0.243973956,0.006622553,0.020988479,0.017655611,0.247908384,0.059211213,-0.157939628,0.186108233,-1.319911711,0.090012492
-0.95196557,-0.185035735,-0.243973956,0.006622553,0.020988479,0.017655611,0.247908384,0.059211213,-0.157939628,0.186108233,-1.319911711,0.090012492
-0.95196557,-0.185035735,-0.243973956,0.006622553,0.020988479,0.017655611,0.247908384,0.059211213,-0.157939628,0.186108233,-1.319911711,0.090012492
-0.95196557,-0.185035735,-0.243973956,0.006622553,0.020988479,0.017655611,0.247908384,0.059211213,-0.157939628,0.186108233,-1.319911711,0.090012492
-0.95196557,-0.185035735,-0.243973956,0.006622553,0.020988479,0.017655611,0.247908384,0.059211213,-0.157939628,0.186108233,-1.319911711,0.090012492
-0.480582327,-0.876399815,-0.031049116,-0.422158301,-0.297443926,0.259855151,-0.090071492,-0.921686292,-5.438601494,1.068334908,-1.506278719,0.620229399
-0.480582327,-0.876399815,-0.031049116,-0.422158301,-0.297443926,0.259855151,-0.090071492,-0.921686292,-5.438601494,1.068334908,-1.506278719,0.620229399
-0.480582327,-0.876399815,-0.031049116,-0.422158301,-0.297443926,0.259855151,-0.090071492,-0.921686292,-5.438601494,1.068334908,-1.506278719,0.620229399
-0.480582327,-0.876399815,-0.031049116,-0.422158301,-0.297443926,0.259855151,-0.090071492,-0.921686292,-5.438601494,1.068334908,-1.506278719,0.620229399
-0.480582327,-0.876399815,-0.031049116,-0.422158301,-0.297443926,0.259855151,-0.090071492,-0.921686292,-5.438601494,1.068334908,-1.506278719,0.620229399
-0.480582327,-0.876399815,-0.031049116,-0.422158301,-0.297443926,0.259855151,-0.090071492,-0.921686292,-5.438601494,1.068334908,-1.506278719,0.620229399
-0.480582327,-0.876399815,-0.031049116,-0.422158301,-0.297443926,0.259855151,-0.090071492,-0.921686292,-5.438601494,1.068334908,-1.506278719,0.620229399
-0.480582327,-0.876399815,-0.031049116,-0.422158301,-0.297443926,0.259855151,-0.090071492,-0.921686292,-5.438601494,1.068334908,-1.506278719,0.620229399
-0.480582327,-0.876399815,-0.031049116,-0.422158301,-0.297443926,0.259855151,-0.090071492,-0.921686292,-5.438601494,1.068334908,-1.506278719,0.620229399
-0.266338676,-0.963845313,-0.008118819,-0.274326056,-0.340964496,0.5265975,0.331972003,-0.871965706,-6.027983189,1.301075524,-1.540322699,0.621129089
-0.266338676,-0.963845313,-0.008118819,-0.274326056,-0.340964496,0.5265975,0.331972003,-0.871965706,-6.027983189,1.301075524,-1.540322699,0.621129089
-0.266338676,-0.963845313,-0.008118819,-0.274326056,-0.340964496,0.5265975,0.331972003,-0.871965706,-6.027983189,1.301075524,-1.540322699,0.621129089
-0.266338676,-0.963845313,-0.008118819,-0.274326056,-0.340964496,0.5265975,0.331972003,-0.871965706,-6.027983189,1.301075524,-1.540322699,0.621129089
-0.266338676,-0.963845313,-0.008118819,-0.274326056,-0.340964496,0.5265975,0.331972003,-0.871965706,-6.027983189,1.301075524,-1.540322699,0.621129089
-0.266338676,-0.963845313,-0.008118819,-0.274326056,-0.340964496,0.5265975,0.331972003,-0.871965706,-6.027983189,1.301075524,-1.540322699,0.621129089
-0.266338676,-0.963845313,-0.008118819,-0.274326056,-0.340964496,0.5265975,0.331972003,-0.871965706,-6.027983189,1.301075524,-1.540322699,0.621129089
-0.266338676,-0.963845313,-0.008118819,-0.274326056,-0.340964496,0.5265975,0.331972003,-0.871965706,-6.027983189,1.301075524,-1.540322699,0.621129089
-0.266338676,-0.963845313,-0.008118819,-0.274326056,-0.340964496,0.5265975,0.331972003,-0.871965706,-6.027983189,1.301075524,-1.540322699,0.621129089
-0.016885735,-0.99970293,0.01758158,-0.08849144,-0.082145214,0.626842856,0.831165612,-1.88995719,-6.524784088,1.546421613,-2.376380285,1.404155008
-0.016885735,-0.99970293,0.01758158,-0.08849144,-0.082145214,0.626842856,0.831165612,-1.88995719,-6.524784088,1.546421613,-2.376380285,1.404155008
-0.016885735,-0.99970293,0.01758158,-0.08849144,-0.082145214,0.626842856,0.831165612,-1.88995719,-6.524784088,1.546421613,-2.376380285,1.404155008
-0.016885735,-0.99970293,0.01758158,-0.08849144,-0.082145214,0.626842856,0.831165612,-1.88995719,-6.524784088,1.546421613,-2.376380285,1.404155008
-0.016885735,-0.99970293,0.01758158,-0.08849144,-0.082145214,0.626842856,0.831165612,-1.88995719,-6.524784088,1.546421613,-2.376380285,1.404155008
-0.016885735,-0.99970293,0.01758158,-0.08849144,-0.082145214,0.626842856,0.831165612,-1.88995719,-6.524784088,1.546421613,-2.376380285,1.404155008
-0.016885735,-0.99970293,0.01758158,-0.08849144,-0.082145214,0.626842856,0.831165612,-1.88995719,-6.524784088,1.546421613,-2.376380285,1.404155008
-0.016885735,-0.99970293,0.01758158,-0.08849144,-0.082145214,0.626842856,0.831165612,-1.88995719,-6.524784088,1.546421613,-2.376380285,1.404155008
-0.016885735,-0.99970293,0.01758158,-0.08849144,-0.082145214,0.626842856,0.831165612,-1.88995719,-6.524784088,1.546421613,-2.376380285,1.404155008
0.242107332,-0.969688952,0.032982066,-0.203166962,-0.315024614,0.5293957,0.117435955,-3.201376915,-6.248376369,1.323954633,1.706191963,-2.77582659
0.242107332,-0.969688952,0.032982066,-0.203166962,-0.315024614,0.5293957,0.117435955,-3.201376915,-6.248376369,1.323954633,1.706191963,-2.77582659
0.242107332,-0.969688952,0.032982066,-0.203166962,-0.315024614,0.5293957,0.117435955,-3.201376915,-6.248376369,1.323954633,1.706191963,-2.77582659
0.242107332,-0.969688952,0.032982066,-0.203166962,-0.315024614,0.5293957,0.117435955,-3.201376915,-6.248376369,1.323954633,1.706191963,-2.77582659
0.242107332,-0.969688952,0.032982066,-0.203166962,-0.315024614,0.5293957,0.117435955,-3.201376915,-6.248376369,1.323954633,1.706191963,-2.77582659
0.242107332,-0.969688952,0.032982066,-0.203166962,-0.315024614,0.5293957,0.117435955,-3.201376915,-6.248376369,1.323954633,1.706191963,-2.77582659
0.242107332,-0.969688952,0.032982066,-0.203166962,-0.315024614,0.5293957,0.117435955,-3.201376915,-6.248376369,1.323954633,1.706191963,-2.77582659
0.242107332,-0.969688952,0.032982066,-0.203166962,-0.315024614,0.5293957,0.117435955,-3.201376915,-6.248376369,1.323954633,1.706191963,-2.77582659
0.242107332,-0.969688952,0.032982066,-0.203166962,-0.315024614,0.5293957,0.117435955,-3.201376915,-6.248376369,1.323954633,1.706191963,-2.77582659
0.242107332,-0.969688952,0.032982066,-0.203166962,-0.315024614,0.5293957,0.117435955,-3.201376915,-6.248376369,1.323954633,1.706191963,-2.77582659
0.242107332,-0.969688952,0.032982066,-0.203166962,-0.315024614,0.5293957,0.117435955,-3.201376915,-6.248376369,1.323954633,1.706191963,-2.77582659
0.242107332,-0.969688952,0.032982066,-0.203166962,-0.315024614,0.5293957,0.117435955,-3.201376915,-6.248376369,1.323954633,1.706191963,-2.77582659
0.473500758,-0.880642831,-0.016294194,-0.548467517,0.066800654,0.54862684,0.81389761,-4.089024544,-6.064282417,1.077217248,1.536397721,-2.759009228
0.473500758,-0.880642831,-0.016294194,-0.548467517,0.066800654,0.54862684,0.81389761,-4.089024544,-6.064282417,1.077217248,1.536397721,-2.759009228
0.473500758,-0.880642831,-0.016294194,-0.548467517,0.066800654,0.54862684,0.81389761,-4.089024544,-6.064282417,1.077217248,1.536397721,-2.759009228
0.473500758,-0.880642831,-0.016294194,-0.548467517,0.066800654,0.54862684,0.81389761,-4.089024544,-6.064282417,1.077217248,1.536397721,-2.759009228
0.473500758,-0.880642831,-0.016294194,-0.548467517,0.066800654,0.54862684,0.81389761,-4.089024544,-6.064282417,1.077217248,1.536397721,-2.759009228
0.473500758,-0.880642831,-0.016294194,-0.548467517,0.066800654,0.54862684,0.81389761,-4.089024544,-6.064282417,1.077217248,1.536397721,-2.759009228
0.645710468,-0.760908902,-0.063840635,-0.521474004,0.220367074,0.240597606,1.65392518,-4.921089649,-4.695692062,0.864712775,1.472247772,-2.890352181
0.645710468,-0.760908902,-0.063840635,-0.521474004,0.220367074,0.240597606,1.65392518,-4.921089649,-4.695692062,0.864712775,1.472247772,-2.890352181
0.645710468,-0.760908902,-0.063840635,-0.521474004,0.220367074,0.240597606,1.65392518,-4.921089649,-4.695692062,0.864712775,1.472247772,-2.890352181
0.731309474,-0.656934977,-0.183366045,-0.808931828,0.032027245,0.217422664,0.071836613,-4.998191357,-3.044356823,0.716746241,1.325124525,-2.978521775
0.731309474,-0.656934977,-0.183366045,-0.808931828,0.032027245,0.217422664,0.071836613,-4.998191357,-3.044356823,0.716746241,1.325124525,-2.978521775
0.731309474,-0.656934977,-0.183366045,-0.808931828,0.032027245,0.217422664,0.071836613,-4.998191357,-3.044356823,0.716746241,1.325124525,-2.978521775
0.731309474,-0.656934977,-0.183366045,-0.808931828,0.032027245,0.217422664,0.071836613,-4.998191357,-3.044356823,0.716746241,1.325124525,-2.978521775
0.731309474,-0.656934977,-0.183366045,-0.808931828,0.032027245,0.217422664,0.071836613,-4.998191357,-3.044356823,0.716746241,1.325124525,-2.978521775
0.747891307,-0.586106241,-0.311670005,-0.786847591,0.487336636,0.020379126,0.589918077,-3.6152246,-1.931143522,0.626244707,1.175949802,-3.014369515
0.747891307,-0.586106241,-0.311670005,-0.786847591,0.487336636,0.020379126,0.589918077,-3.6152246,-1.931143522,0.626244707,1.175949802,-3.014369515
0.747891307,-0.586106241,-0.311670005,-0.786847591,0.487336636,0.020379126,0.589918077,-3.6152246,-1.931143522,0.626244707,1.175949802,-3.014369515
0.747891307,-0.586106241,-0.311670005,-0.786847591,0.487336636,0.020379126,0.589918077,-3.6152246,-1.931143522,0.626244707,1.175949802,-3.014369515
0.740247488,-0.556364179,-0.377481997,-0.722151279,0.162230194,0.048654556,0.55730623,-2.26078248,-0.935358107,0.59000381,1.099228173,-3.084769566
0.722521365,-0.548514843,-0.420825809,-0.577792466,0.48007971,-0.176708937,0.246789202,-0.735105515,-0.103762135,0.580586986,1.043388195,-3.088326878
0.722521365,-0.548514843,-0.420825809,-0.577792466,0.48007971,-0.176708937,0.246789202,-0.735105515,-0.103762135,0.580586986,1.043388195,-3.088326878
0.722521365,-0.548514843,-0.420825809,-0.577792466,0.48007971,-0.176708937,0.246789202,-0.735105515,-0.103762135,0.580586986,1.043388195,-3.088326878
0.722521365,-0.548514843,-0.420825809,-0.577792466,0.48007971,-0.176708937,0.246789202,-0.735105515,-0.103762135,0.580586986,1.043388195,-3.088326878
0.722521365,-0.548514843,-0.420825809,-0.577792466,0.48007971,-0.176708937,0.246789202,-0.735105515,-0.103762135,0.580586986,1.043388195,-3.088326878
0.700345457,-0.522702754,-0.486105144,-0.023069501,-0.034791887,0.176625907,-1.459123611,0.367663324,0.261711657,0.550018187,0.964045557,-2.965990549
0.700345457,-0.522702754,-0.486105144,-0.023069501,-0.034791887,0.176625907,-1.459123611,0.367663324,0.261711657,0.550018187,0.964045557,-2.965990549
0.700345457,-0.522702754,-0.486105144,-0.023069501,-0.034791887,0.176625907,-1.459123611,0.367663324,0.261711657,0.550018187,0.964045557,-2.965990549
0.700345457,-0.522702754,-0.486105144,-0.023069501,-0.034791887,0.176625907,-1.459123611,0.367663324,0.261711657,0.550018187,0.964045557,-2.965990549
0.701055825,-0.507122815,-0.501345277,0.064599037,-0.076220155,-0.052640796,-1.270908237,0.26313287,0.370943487,0.531843229,0.949988763,-2.913011687
0.701055825,-0.507122815,-0.501345277,0.064599037,-0.076220155,-0.052640796,-1.270908237,0.26313287,0.370943487,0.531843229,0.949988763,-2.913011687
0.701055825,-0.507122815,-0.501345277,0.064599037,-0.076220155,-0.052640796,-1.270908237,0.26313287,0.370943487,0.531843229,0.949988763,-2.913011687
0.709462881,-0.436452061,-0.553328276,-0.021642983,-0.021235019,0.161146522,-2.644703627,0.821495831,0.412935287,0.451651533,0.908416268,-2.729058093
0.709462881,-0.436452061,-0.553328276,-0.021642983,-0.021235019,0.161146522,-2.644703627,0.821495831,0.412935287,0.451651533,0.908416268,-2.729058093
0.709462881,-0.436452061,-0.553328276,-0.021642983,-0.021235019,0.161146522,-2.644703627,0.821495831,0.412935287,0.451651533,0.908416268,-2.729058093
0.709462881,-0.436452061,-0.553328276,-0.021642983,-0.021235019,0.161146522,-2.644703627,0.821495831,0.412935287,0.451651533,0.908416268,-2.729058093
0.709462881,-0.436452061,-0.553328276,-0.021642983,-0.021235019,0.161146522,-2.644703627,0.821495831,0.412935287,0.451651533,0.908416268,-2.729058093
0.709462881,-0.436452061,-0.553328276,-0.021642983,-0.021235019,0.161146522,-2.644703627,0.821495831,0.412935287,0.451651533,0.908416268,-2.729058093
0.713341832,-0.401081562,-0.574697375,0.21950376,0.141529858,0.090627313,-1.129488945,-0.100670636,0.153234869,0.412697235,0.892625247,-2.654209546
0.713341832,-0.401081562,-0.574697375,0.21950376,0.141529858,0.090627313,-1.129488945,-0.100670636,0.153234869,0.412697235,0.892625247,-2.654209546
0.713341832,-0.401081562,-0.574697375,0.21950376,0.141529858,0.090627313,-1.129488945,-0.100670636,0.153234869,0.412697235,0.892625247,-2.654209546
0.713341832,-0.401081562,-0.574697375,0.21950376,0.141529858,0.090627313,-1.129488945,-0.100670636,0.153234869,0.412697235,0.892625247,-2.654209546
0.713341832,-0.401081562,-0.574697375,0.21950376,0.141529858,0.090627313,-1.129488945,-0.100670636,0.153234869,0.412697235,0.892625247,-2.654209546
0.713341832,-0.401081562,-0.574697375,0.21950376,0.141529858,0.090627313,-1.129488945,-0.100670636,0.153234869,0.412697235,0.892625247,-2.654209546
0.713341832,-0.401081562,-0.574697375,0.21950376,0.141529858,0.090627313,-1.129488945,-0.100670636,0.153234869,0.412697235,0.892625247,-2.654209546
0.713341832,-0.401081562,-0.574697375,0.21950376,0.141529858,0.090627313,-1.129488945,-0.100670636,0.153234869,0.412697235,0.892625247,-2.654209546
0.713341832,-0.401081562,-0.574697375,0.21950376,0.141529858,0.090627313,-1.129488945,-0.100670636,0.153234869,0.412697235,0.892625247,-2.654209546
0.711160779,-0.38720119,-0.586792588,0.188237369,0.047113687,-0.001113653,0.435354352,-0.139285907,-0.452905923,0.397594058,0.880925223,-2.640899701
0.711160779,-0.38720119,-0.586792588,0.188237369,0.047113687,-0.001113653,0.435354352,-0.139285907,-0.452905923,0.397594058,0.880925223,-2.640899701
0.711160779,-0.38720119,-0.586792588,0.188237369,0.047113687,-0.001113653,0.435354352,-0.139285907,-0.452905923,0.397594058,0.880925223,-2.640899701
0.711160779,-0.38720119,-0.586792588,0.188237369,0.047113687,-0.001113653,0.435354352,-0.139285907,-0.452905923,0.397594058,0.880925223,-2.640899701
0.711160779,-0.38720119,-0.586792588,0.188237369,0.047113687,-0.001113653,0.435354352,-0.139285907,-0.452905923,0.397594058,0.880925223,-2.640899701
0.711160779,-0.38720119,-0.586792588,0.188237369,0.047113687,-0.001113653,0.435354352,-0.139285907,-0.452905923,0.397594058,0.880925223,-2.640899701
0.711160779,-0.38720119,-0.586792588,0.188237369,0.047113687,-0.001113653,0.435354352,-0.139285907,-0.452905923,0.397594058,0.880925223,-2.640899701
0.711160779,-0.38720119,-0.586792588,0.188237369,0.047113687,-0.001113653,0.435354352,-0.139285907,-0.452905923,0.397594058,0.880925223,-2.640899701
0.706350386,-0.412778586,-0.575050414,0.175271451,0.44119072,-0.02681756,3.9211905,-1.309074879,-0.742979646,0.42550257,0.887507753,-2.728873664
0.706350386,-0.412778586,-0.575050414,0.175271451,0.44119072,-0.02681756,3.9211905,-1.309074879,-0.742979646,0.42550257,0.887507753,-2.728873664
0.706350386,-0.412778586,-0.575050414,0.175271451,0.44119072,-0.02681756,3.9211905,-1.309074879,-0.742979646,0.42550257,0.887507753,-2.728873664
0.694232166,-0.488195598,-0.528873205,-0.210834205,-0.165093869,-0.03921181,3.526227236,-0.572002411,-0.494965881,0.510021031,0.919779388,-2.895309478
0.694232166,-0.488195598,-0.528873205,-0.210834205,-0.165093869,-0.03921181,3.526227236,-0.572002411,-0.494965881,0.510021031,0.919779388,-2.895309478
0.694232166,-0.488195598,-0.528873205,-0.210834205,-0.165093869,-0.03921181,3.526227236,-0.572002411,-0.494965881,0.510021031,0.919779388,-2.895309478
0.694232166,-0.488195598,-0.528873205,-0.210834205,-0.165093869,-0.03921181,3.526227236,-0.572002411,-0.494965881,0.510021031,0.919779388,-2.895309478
0.694232166,-0.488195598,-0.528873205,-0.210834205,-0.165093869,-0.03921181,3.526227236,-0.572002411,-0.494965881,0.510021031,0.919779388,-2.895309478
0.694232166,-0.488195598,-0.528873205,-0.210834205,-0.165093869,-0.03921181,3.526227236,-0.572002411,-0.494965881,0.510021031,0.919779388,-2.895309478
0.694232166,-0.488195598,-0.528873205,-0.210834205,-0.165093869,-0.03921181,3.526227236,-0.572002411,-0.494965881,0.510021031,0.919779388,-2.895309478
0.694232166,-0.488195598,-0.528873205,-0.210834205,-0.165093869,-0.03921181,3.526227236,-0.572002411,-0.494965881,0.510021031,0.919779388,-2.895309478
0.694232166,-0.488195598,-0.528873205,-0.210834205,-0.165093869,-0.03921181,3.526227236,-0.572002411,-0.494965881,0.510021031,0.919779388,-2.895309478
0.690081537,-0.534942687,-0.487466842,-0.066211104,0.167969167,0.042901695,2.633328438,-0.578511953,-0.452218294,0.564439931,0.955794469,-3.010206345
0.690081537,-0.534942687,-0.487466842,-0.066211104,0.167969167,0.042901695,2.633328438,-0.578511953,-0.452218294,0.564439931,0.955794469,-3.010206345
0.690081537,-0.534942687,-0.487466842,-0.066211104,0.167969167,0.042901695,2.633328438,-0.578511953,-0.452218294,0.564439931,0.955794469,-3.010206345
0.690081537,-0.534942687,-0.487466842,-0.066211104,0.167969167,0.042901695,2.633328438,-0.578511953,-0.452218294,0.564439931,0.955794469,-3.010206345
0.690081537,-0.534942687,-0.487466842,-0.066211104,0.167969167,0.042901695,2.633328438,-0.578511953,-0.452218294,0.564439931,0.955794469,-3.010206345
0.690081537,-0.534942687,-0.487466842,-0.066211104,0.167969167,0.042901695,2.633328438,-0.578511953,-0.452218294,0.564439931,0.955794469,-3.010206345
0.690081537,-0.534942687,-0.487466842,-0.066211104,0.167969167,0.042901695,2.633328438,-0.578511953,-0.452218294,0.564439931,0.955794469,-3.010206345
0.690081537,-0.534942687,-0.487466842,-0.066211104,0.167969167,0.042901695,2.633328438,-0.578511953,-0.452218294,0.564439931,0.955794469,-3.010206345
0.690081537,-0.534942687,-0.487466842,-0.066211104,0.167969167,0.042901695,2.633328438,-0.578511953,-0.452218294,0.564439931,0.955794469,-3.010206345
0.694417417,-0.568338871,-0.441333711,-0.118429124,-0.361714423,0.335330486,1.246543288,0.030640855,-0.21240142,0.60448557,1.004649794,-3.113696649
0.694417417,-0.568338871,-0.441333711,-0.118429124,-0.361714423,0.335330486,1.246543288,0.030640855,-0.21240142,0.60448557,1.004649794,-3.113696649
0.694417417,-0.568338871,-0.441333711,-0.118429124,-0.361714423,0.335330486,1.246543288,0.030640855,-0.21240142,0.60448557,1.004649794,-3.113696649
0.70126313,-0.530877292,-0.475814342,-0.101394653,-0.070562899,-0.041916609,-2.78325367,1.06605792,0.660559833,0.559635459,0.974638953,-2.98686152
0.70126313,-0.530877292,-0.475814342,-0.101394653,-0.070562899,-0.041916609,-2.78325367,1.06605792,0.660559833,0.559635459,0.974638953,-2.98686152
0.70126313,-0.530877292,-0.475814342,-0.101394653,-0.070562899,-0.041916609,-2.78325367,1.06605792,0.660559833,0.559635459,0.974638953,-2.98686152
0.70126313,-0.530877292,-0.475814342,-0.101394653,-0.070562899,-0.041916609,-2.78325367,1.06605792,0.660559833,0.559635459,0.974638953,-2.98686152
0.70126313,-0.530877292,-0.475814342,-0.101394653,-0.070562899,-0.041916609,-2.78325367,1.06605792,0.660559833,0.559635459,0.974638953,-2.98686152
0.70126313,-0.530877292,-0.475814342,-0.101394653,-0.070562899,-0.041916609,-2.78325367,1.06605792,0.660559833,0.559635459,0.974638953,-2.98686152
0.705649734,-0.510894477,-0.490963668,0.107734799,0.048645079,0.069530785,-1.47778976,0.657998025,0.574730158,0.536224966,0.962920887,-2.894568626
0.705649734,-0.510894477,-0.490963668,0.107734799,0.048645079,0.069530785,-1.47778976,0.657998025,0.574730158,0.536224966,0.962920887,-2.894568626
0.705649734,-0.510894477,-0.490963668,0.107734799,0.048645079,0.069530785,-1.47778976,0.657998025,0.574730158,0.536224966,0.962920887,-2.894568626
0.705649734,-0.510894477,-0.490963668,0.107734799,0.048645079,0.069530785,-1.47778976,0.657998025,0.574730158,0.536224966,0.962920887,-2.894568626
0.705649734,-0.510894477,-0.490963668,0.107734799,0.048645079,0.069530785,-1.47778976,0.657998025,0.574730158,0.536224966,0.962920887,-2.894568626
0.705649734,-0.510894477,-0.490963668,0.107734799,0.048645079,0.069530785,-1.47778976,0.657998025,0.574730158,0.536224966,0.962920887,-2.894568626
0.708214223,-0.488364011,-0.509836614,0.059622824,-0.101052105,0.053659439,-2.112918377,0.665613174,0.378792912,0.510214011,0.94684546,-2.814701752
0.708214223,-0.488364011,-0.509836614,0.059622824,-0.101052105,0.053659439,-2.112918377,0.665613174,0.378792912,0.510214011,0.94684546,-2.814701752
0.708214223,-0.488364011,-0.509836614,0.059622824,-0.101052105,0.053659439,-2.112918377,0.665613174,0.378792912,0.510214011,0.94684546,-2.814701752
0.709046304,-0.465485156,-0.529695094,0.024427772,0.101319343,-0.058653831,-1.315197706,0.285799176,0.514196455,0.484182691,0.929184027,-2.737026532
0.709046304,-0.465485156,-0.529695094,0.024427772,0.101319343,-0.058653831,-1.315197706,0.285799176,0.514196455,0.484182691,0.929184027,-2.737026532
0.709046304,-0.465485156,-0.529695094,0.024427772,0.101319343,-0.058653831,-1.315197706,0.285799176,0.514196455,0.484182691,0.929184027,-2.737026532
0.709046304,-0.465485156,-0.529695094,0.024427772,0.101319343,-0.058653831,-1.315197706,0.285799176,0.514196455,0.484182691,0.929184027,-2.737026532
0.709046304,-0.465485156,-0.529695094,0.024427772,0.101319343,-0.058653831,-1.315197706,0.285799176,0.514196455,0.484182691,0.929184027,-2.737026532
0.709046304,-0.465485156,-0.529695094,0.024427772,0.101319343,-0.058653831,-1.315197706,0.285799176,0.514196455,0.484182691,0.929184027,-2.737026532
0.709046304,-0.465485156,-0.529695094,0.024427772,0.101319343,-0.058653831,-1.315197706,0.285799176,0.514196455,0.484182691,0.929184027,-2.737026532
0.709046304,-0.465485156,-0.529695094,0.024427772,0.101319343,-0.058653831,-1.315197706,0.285799176,0.514196455,0.484182691,0.929184027,-2.737026532
0.709046304,-0.465485156,-0.529695094,0.024427772,0.101319343,-0.058653831,-1.315197706,0.285799176,0.514196455,0.484182691,0.929184027,-2.737026532
0.709424913,-0.450044841,-0.542379975,-0.057234526,0.013903409,0.107488692,-1.528205991,0.618693531,0.405578494,0.466815545,0.918057712,-2.679570516
0.709424913,-0.450044841,-0.542379975,-0.057234526,0.013903409,0.107488692,-1.528205991,0.618693531,0.405578494,0.466815545,0.918057712,-2.679570516
0.709424913,-0.450044841,-0.542379975,-0.057234526,0.013903409,0.107488692,-1.528205991,0.618693531,0.405578494,0.466815545,0.918057712,-2.679570516
0.709424913,-0.450044841,-0.542379975,-0.057234526,0.013903409,0.107488692,-1.528205991,0.618693531,0.405578494,0.466815545,0.918057712,-2.679570516
0.709424913,-0.450044841,-0.542379975,-0.057234526,0.013903409,0.107488692,-1.528205991,0.618693531,0.405578494,0.466815545,0.918057712,-2.679570516
0.715566576,-0.424821526,-0.554518998,-0.020697355,-0.096616566,-0.068467319,-1.85830164,0.6634413,0.526030719,0.438764724,0.911525618,-2.604912703
0.715566576,-0.424821526,-0.554518998,-0.020697355,-0.096616566,-0.068467319,-1.85830164,0.6634413,0.526030719,0.438764724,0.911525618,-2.604912703
0.715566576,-0.424821526,-0.554518998,-0.020697355,-0.096616566,-0.068467319,-1.85830164,0.6634413,0.526030719,0.438764724,0.911525618,-2.604912703
0.715566576,-0.424821526,-0.554518998,-0.020697355,-0.096616566,-0.068467319,-1.85830164,0.6634413,0.526030719,0.438764724,0.911525618,-2.604912703
0.715566576,-0.424821526,-0.554518998,-0.020697355,-0.096616566,-0.068467319,-1.85830164,0.6634413,0.526030719,0.438764724,0.911525618,-2.604912703
0.715566576,-0.424821526,-0.554518998,-0.020697355,-0.096616566,-0.068467319,-1.85830164,0.6634413,0.526030719,0.438764724,0.911525618,-2.604912703
0.715566576,-0.424821526,-0.554518998,-0.020697355,-0.096616566,-0.068467319,-1.85830164,0.6634413,0.526030719,0.438764724,0.911525618,-2.604912703
0.741131127,-0.274185449,-0.612818956,-0.248990834,0.336273968,0.131968021,-1.587478518,0.083952688,0.847253442,0.27774259,0.879884737,-2.244002276
0.741131127,-0.274185449,-0.612818956,-0.248990834,0.336273968,0.131968021,-1.587478518,0.083952688,0.847253442,0.27774259,0.879884737,-2.244002276
0.741131127,-0.274185449,-0.612818956,-0.248990834,0.336273968,0.131968021,-1.587478518,0.083952688,0.847253442,0.27774259,0.879884737,-2.244002276
0.741131127,-0.274185449,-0.612818956,-0.248990834,0.336273968,0.131968021,-1.587478518,0.083952688,0.847253442,0.27774259,0.879884737,-2.244002276
0.741131127,-0.274185449,-0.612818956,-0.248990834,0.336273968,0.131968021,-1.587478518,0.083952688,0.847253442,0.27774259,0.879884737,-2.244002276
0.741131127,-0.274185449,-0.612818956,-0.248990834,0.336273968,0.131968021,-1.587478518,0.083952688,0.847253442,0.27774259,0.879884737,-2.244002276
0.741131127,-0.274185449,-0.612818956,-0.248990834,0.336273968,0.131968021,-1.587478518,0.083952688,0.847253442,0.27774259,0.879884737,-2.244002276
0.731210768,-0.283788472,-0.620318472,-0.434169352,0.173864692,0.237184823,-1.825386643,0.49375689,2.336311102,0.287742719,0.86726427,-2.152643455
0.731210768,-0.283788472,-0.620318472,-0.434169352,0.173864692,0.237184823,-1.825386643,0.49375689,2.336311102,0.287742719,0.86726427,-2.152643455
0.731210768,-0.283788472,-0.620318472,-0.434169352,0.173864692,0.237184823,-1.825386643,0.49375689,2.336311102,0.287742719,0.86726427,-2.152643455
0.731210768,-0.283788472,-0.620318472,-0.434169352,0.173864692,0.237184823,-1.825386643,0.49375689,2.336311102,0.287742719,0.86726427,-2.152643455
0.731210768,-0.283788472,-0.620318472,-0.434169352,0.173864692,0.237184823,-1.825386643,0.49375689,2.336311102,0.287742719,0.86726427,-2.152643455
0.731210768,-0.283788472,-0.620318472,-0.434169352,0.173864692,0.237184823,-1.825386643,0.49375689,2.336311102,0.287742719,0.86726427,-2.152643455
0.698127091,-0.313196033,-0.643837571,-0.28572911,0.261927098,0.228095949,-2.19973278,-0.611209333,3.79901433,0.318556508,0.825831363,-1.997876375
0.698127091,-0.313196033,-0.643837571,-0.28572911,0.261927098,0.228095949,-2.19973278,-0.611209333,3.79901433,0.318556508,0.825831363,-1.997876375
0.698127091,-0.313196033,-0.643837571,-0.28572911,0.261927098,0.228095949,-2.19973278,-0.611209333,3.79901433,0.318556508,0.825831363,-1.997876375
0.698127091,-0.313196033,-0.643837571,-0.28572911,0.261927098,0.228095949,-2.19973278,-0.611209333,3.79901433,0.318556508,0.825831363,-1.997876375
0.698127091,-0.313196033,-0.643837571,-0.28572911,0.261927098,0.228095949,-2.19973278,-0.611209333,3.79901433,0.318556508,0.825831363,-1.997876375
0.698127091,-0.313196033,-0.643837571,-0.28572911,0.261927098,0.228095949,-2.19973278,-0.611209333,3.79901433,0.318556508,0.825831363,-1.997876375
0.698127091,-0.313196033,-0.643837571,-0.28572911,0.261927098,0.228095949,-2.19973278,-0.611209333,3.79901433,0.318556508,0.825831363,-1.997876375
0.698127091,-0.313196033,-0.643837571,-0.28572911,0.261927098,0.228095949,-2.19973278,-0.611209333,3.79901433,0.318556508,0.825831363,-1.997876375
0.698127091,-0.313196033,-0.643837571,-0.28572911,0.261927098,0.228095949,-2.19973278,-0.611209333,3.79901433,0.318556508,0.825831363,-1.997876375
0.6040259,-0.398233294,-0.690335512,-0.384193599,0.314341217,0.401150346,-0.033710603,-1.432445168,4.628305912,0.40959003,0.718815502,-1.837013372
0.6040259,-0.398233294,-0.690335512,-0.384193599,0.314341217,0.401150346,-0.033710603,-1.432445168,4.628305912,0.40959003,0.718815502,-1.837013372
0.6040259,-0.398233294,-0.690335512,-0.384193599,0.314341217,0.401150346,-0.033710603,-1.432445168,4.628305912,0.40959003,0.718815502,-1.837013372
0.6040259,-0.398233294,-0.690335512,-0.384193599,0.314341217,0.401150346,-0.033710603,-1.432445168,4.628305912,0.40959003,0.718815502,-1.837013372
0.6040259,-0.398233294,-0.690335512,-0.384193599,0.314341217,0.401150346,-0.033710603,-1.432445168,4.628305912,0.40959003,0.718815502,-1.837013372
0.6040259,-0.398233294,-0.690335512,-0.384193599,0.314341217,0.401150346,-0.033710603,-1.432445168,4.628305912,0.40959003,0.718815502,-1.837013372
0.478345901,-0.496722698,-0.724190474,-0.386473715,0.477955401,0.360908628,-0.482717425,-1.478743434,5.078590393,0.519818596,0.583738621,-1.654182044
0.478345901,-0.496722698,-0.724190474,-0.386473715,0.477955401,0.360908628,-0.482717425,-1.478743434,5.078590393,0.519818596,0.583738621,-1.654182044
0.478345901,-0.496722698,-0.724190474,-0.386473715,0.477955401,0.360908628,-0.482717425,-1.478743434,5.078590393,0.519818596,0.583738621,-1.654182044
0.478345901,-0.496722698,-0.724190474,-0.386473715,0.477955401,0.360908628,-0.482717425,-1.478743434,5.078590393,0.519818596,0.583738621,-1.654182044
0.478345901,-0.496722698,-0.724190474,-0.386473715,0.477955401,0.360908628,-0.482717425,-1.478743434,5.078590393,0.519818596,0.583738621,-1.654182044
0.478345901,-0.496722698,-0.724190474,-0.386473715,0.477955401,0.360908628,-0.482717425,-1.478743434,5.078590393,0.519818596,0.583738621,-1.654182044
0.478345901,-0.496722698,-0.724190474,-0.386473715,0.477955401,0.360908628,-0.482717425,-1.478743434,5.078590393,0.519818596,0.583738621,-1.654182044
0.310393751,-0.590563118,-0.744910002,-0.543747067,0.135760963,0.296178997,1.184172869,-1.937102199,5.734737873,0.631756476,0.394807809,-1.435253053
0.310393751,-0.590563118,-0.744910002,-0.543747067,0.135760963,0.296178997,1.184172869,-1.937102199,5.734737873,0.631756476,0.394807809,-1.435253053
0.310393751,-0.590563118,-0.744910002,-0.543747067,0.135760963,0.296178997,1.184172869,-1.937102199,5.734737873,0.631756476,0.394807809,-1.435253053
0.310393751,-0.590563118,-0.744910002,-0.543747067,0.135760963,0.296178997,1.184172869,-1.937102199,5.734737873,0.631756476,0.394807809,-1.435253053
0.310393751,-0.590563118,-0.744910002,-0.543747067,0.135760963,0.296178997,1.184172869,-1.937102199,5.734737873,0.631756476,0.394807809,-1.435253053
0.310393751,-0.590563118,-0.744910002,-0.543747067,0.135760963,0.296178997,1.184172869,-1.937102199,5.734737873,0.631756476,0.394807809,-1.435253053
0.310393751,-0.590563118,-0.744910002,-0.543747067,0.135760963,0.296178997,1.184172869,-1.937102199,5.734737873,0.631756476,0.394807809,-1.435253053
0.310393751,-0.590563118,-0.744910002,-0.543747067,0.135760963,0.296178997,1.184172869,-1.937102199,5.734737873,0.631756476,0.394807809,-1.435253053
0.310393751,-0.590563118,-0.744910002,-0.543747067,0.135760963,0.296178997,1.184172869,-1.937102199,5.734737873,0.631756476,0.394807809,-1.435253053
0.310393751,-0.590563118,-0.744910002,-0.543747067,0.135760963,0.296178997,1.184172869,-1.937102199,5.734737873,0.631756476,0.394807809,-1.435253053
0.111034565,-0.656586587,-0.746033132,-0.480740011,0.235933661,0.340682864,0.323228449,-1.494401693,5.721807957,0.716284214,0.147748712,-1.150526461
0.111034565,-0.656586587,-0.746033132,-0.480740011,0.235933661,0.340682864,0.323228449,-1.494401693,5.721807957,0.716284214,0.147748712,-1.150526461
0.111034565,-0.656586587,-0.746033132,-0.480740011,0.235933661,0.340682864,0.323228449,-1.494401693,5.721807957,0.716284214,0.147748712,-1.150526461
0.111034565,-0.656586587,-0.746033132,-0.480740011,0.235933661,0.340682864,0.323228449,-1.494401693,5.721807957,0.716284214,0.147748712,-1.150526461
0.111034565,-0.656586587,-0.746033132,-0.480740011,0.235933661,0.340682864,0.323228449,-1.494401693,5.721807957,0.716284214,0.147748712,-1.150526461
0.111034565,-0.656586587,-0.746033132,-0.480740011,0.235933661,0.340682864,0.323228449,-1.494401693,5.721807957,0.716284214,0.147748712,-1.150526461
0.111034565,-0.656586587,-0.746033132,-0.480740011,0.235933661,0.340682864,0.323228449,-1.494401693,5.721807957,0.716284214,0.147748712,-1.150526461
0.111034565,-0.656586587,-0.746033132,-0.480740011,0.235933661,0.340682864,0.323228449,-1.494401693,5.721807957,0.716284214,0.147748712,-1.150526461
0.111034565,-0.656586587,-0.746033132,-0.480740011,0.235933661,0.340682864,0.323228449,-1.494401693,5.721807957,0.716284214,0.147748712,-1.150526461
0.111034565,-0.656586587,-0.746033132,-0.480740011,0.235933661,0.340682864,0.323228449,-1.494401693,5.721807957,0.716284214,0.147748712,-1.150526461
0.111034565,-0.656586587,-0.746033132,-0.480740011,0.235933661,0.340682864,0.323228449,-1.494401693,5.721807957,0.716284214,0.147748712,-1.150526461
-0.101581126,-0.708792508,-0.698064804,-0.458553523,-0.094825149,0.209737062,2.140939474,-2.164232731,6.120250225,0.787785006,-0.144503903,-0.833568718
-0.101581126,-0.708792508,-0.698064804,-0.458553523,-0.094825149,0.209737062,2.140939474,-2.164232731,6.120250225,0.787785006,-0.144503903,-0.833568718
-0.101581126,-0.708792508,-0.698064804,-0.458553523,-0.094825149,0.209737062,2.140939474,-2.164232731,6.120250225,0.787785006,-0.144503903,-0.833568718
-0.101581126,-0.708792508,-0.698064804,-0.458553523,-0.094825149,0.209737062,2.140939474,-2.164232731,6.120250225,0.787785006,-0.144503903,-0.833568718
-0.101581126,-0.708792508,-0.698064804,-0.458553523,-0.094825149,0.209737062,2.140939474,-2.164232731,6.120250225,0.787785006,-0.144503903,-0.833568718
-0.101581126,-0.708792508,-0.698064804,-0.458553523,-0.094825149,0.209737062,2.140939474,-2.164232731,6.120250225,0.787785006,-0.144503903,-0.833568718
-0.101581126,-0.708792508,-0.698064804,-0.458553523,-0.094825149,0.209737062,2.140939474,-2.164232731,6.120250225,0.787785006,-0.144503903,-0.833568718
-0.101581126,-0.708792508,-0.698064804,-0.458553523,-0.094825149,0.209737062,2.140939474,-2.164232731,6.120250225,0.787785006,-0.144503903,-0.833568718
-0.101581126,-0.708792508,-0.698064804,-0.458553523,-0.094825149,0.209737062,2.140939474,-2.164232731,6.120250225,0.787785006,-0.144503903,-0.833568718
-0.346744239,-0.698987842,-0.625447452,-0.432795972,-0.591186881,-0.144725561,1.11461103,-3.161856413,5.976226807,0.773981211,-0.506210358,-0.47582921
-0.346744239,-0.698987842,-0.625447452,-0.432795972,-0.591186881,-0.144725561,1.11461103,-3.161856413,5.976226807,0.773981211,-0.506210358,-0.47582921
-0.346744239,-0.698987842,-0.625447452,-0.432795972,-0.591186881,-0.144725561,1.11461103,-3.161856413,5.976226807,0.773981211,-0.506210358,-0.47582921
-0.346744239,-0.698987842,-0.625447452,-0.432795972,-0.591186881,-0.144725561,1.11461103,-3.161856413,5.976226807,0.773981211,-0.506210358,-0.47582921
-0.346744239,-0.698987842,-0.625447452,-0.432795972,-0.591186881,-0.144725561,1.11461103,-3.161856413,5.976226807,0.773981211,-0.506210358,-0.47582921
-0.346744239,-0.698987842,-0.625447452,-0.432795972,-0.591186881,-0.144725561,1.11461103,-3.161856413,5.976226807,0.773981211,-0.506210358,-0.47582921
-0.346744239,-0.698987842,-0.625447452,-0.432795972,-0.591186881,-0.144725561,1.11461103,-3.161856413,5.976226807,0.773981211,-0.506210358,-0.47582921
-0.566564083,-0.632339299,-0.528348446,-0.321404338,-0.500700414,0.164959192,1.54535675,-3.041661978,4.931911945,0.684569145,-0.820286886,-0.206255404
-0.566564083,-0.632339299,-0.528348446,-0.321404338,-0.500700414,0.164959192,1.54535675,-3.041661978,4.931911945,0.684569145,-0.820286886,-0.206255404
-0.566564083,-0.632339299,-0.528348446,-0.321404338,-0.500700414,0.164959192,1.54535675,-3.041661978,4.931911945,0.684569145,-0.820286886,-0.206255404
-0.566564083,-0.632339299,-0.528348446,-0.321404338,-0.500700414,0.164959192,1.54535675,-3.041661978,4.931911945,0.684569145,-0.820286886,-0.206255404
-0.566564083,-0.632339299,-0.528348446,-0.321404338,-0.500700414,0.164959192,1.54535675,-3.041661978,4.931911945,0.684569145,-0.820286886,-0.206255404
-0.566564083,-0.632339299,-0.528348446,-0.321404338,-0.500700414,0.164959192,1.54535675,-3.041661978,4.931911945,0.684569145,-0.820286886,-0.206255404
-0.566564083,-0.632339299,-0.528348446,-0.321404338,-0.500700414,0.164959192,1.54535675,-3.041661978,4.931911945,0.684569145,-0.820286886,-0.206255404
-0.566564083,-0.632339299,-0.528348446,-0.321404338,-0.500700414,0.164959192,1.54535675,-3.041661978,4.931911945,0.684569145,-0.820286886,-0.206255404
-0.72109586,-0.544361413,-0.428592533,-0.493333995,-0.487192392,0.013841867,1.297047615,-2.534399748,3.910103559,0.575627637,-1.034532176,-0.022990257
-0.72109586,-0.544361413,-0.428592533,-0.493333995,-0.487192392,0.013841867,1.297047615,-2.534399748,3.910103559,0.575627637,-1.034532176,-0.022990257
-0.72109586,-0.544361413,-0.428592533,-0.493333995,-0.487192392,0.013841867,1.297047615,-2.534399748,3.910103559,0.575627637,-1.034532176,-0.022990257
-0.72109586,-0.544361413,-0.428592533,-0.493333995,-0.487192392,0.013841867,1.297047615,-2.534399748,3.910103559,0.575627637,-1.034532176,-0.022990257
-0.72109586,-0.544361413,-0.428592533,-0.493333995,-0.487192392,0.013841867,1.297047615,-2.534399748,3.910103559,0.575627637,-1.034532176,-0.022990257
-0.72109586,-0.544361413,-0.428592533,-0.493333995,-0.487192392,0.013841867,1.297047615,-2.534399748,3.910103559,0.575627637,-1.034532176,-0.022990257
-0.72109586,-0.544361413,-0.428592533,-0.493333995,-0.487192392,0.013841867,1.297047615,-2.534399748,3.910103559,0.575627637,-1.034532176,-0.022990257
-0.72109586,-0.544361413,-0.428592533,-0.493333995,-0.487192392,0.013841867,1.297047615,-2.534399748,3.910103559,0.575627637,-1.034532176,-0.022990257
-0.72109586,-0.544361413,-0.428592533,-0.493333995,-0.487192392,0.013841867,1.297047615,-2.534399748,3.910103559,0.575627637,-1.034532176,-0.022990257
-0.72109586,-0.544361413,-0.428592533,-0.493333995,-0.487192392,0.013841867,1.297047615,-2.534399748,3.910103559,0.575627637,-1.034532176,-0.022990257
-0.72109586,-0.544361413,-0.428592533,-0.493333995,-0.487192392,0.013841867,1.297047615,-2.534399748,3.910103559,0.575627637,-1.034532176,-0.022990257
-0.82918787,-0.451115072,-0.330064923,-0.496386707,-0.712412238,-0.250915229,0.971556604,-2.384526968,2.987617731,0.468014373,-1.191965138,0.095116242
-0.82918787,-0.451115072,-0.330064923,-0.496386707,-0.712412238,-0.250915229,0.971556604,-2.384526968,2.987617731,0.468014373,-1.191965138,0.095116242
-0.82918787,-0.451115072,-0.330064923,-0.496386707,-0.712412238,-0.250915229,0.971556604,-2.384526968,2.987617731,0.468014373,-1.191965138,0.095116242
-0.82918787,-0.451115072,-0.330064923,-0.496386707,-0.712412238,-0.250915229,0.971556604,-2.384526968,2.987617731,0.468014373,-1.191965138,0.095116242
-0.82918787,-0.451115072,-0.330064923,-0.496386707,-0.712412238,-0.250915229,0.971556604,-2.384526968,2.987617731,0.468014373,-1.191965138,0.095116242
-0.82918787,-0.451115072,-0.330064923,-0.496386707,-0.712412238,-0.250915229,0.971556604,-2.384526968,2.987617731,0.468014373,-1.191965138,0.095116242
-0.82918787,-0.451115072,-0.330064923,-0.496386707,-0.712412238,-0.250915229,0.971556604,-2.384526968,2.987617731,0.468014373,-1.191965138,0.095116242
-0.82918787,-0.451115072,-0.330064923,-0.496386707,-0.712412238,-0.250915229,0.971556604,-2.384526968,2.987617731,0.468014373,-1.191965138,0.095116242
-0.82918787,-0.451115072,-0.330064923,-0.496386707,-0.712412238,-0.250915229,0.971556604,-2.384526968,2.987617731,0.468014373,-1.191965138,0.095116242
-0.82918787,-0.451115072,-0.330064923,-0.496386707,-0.712412238,-0.250915229,0.971556604,-2.384526968,2.987617731,0.468014373,-1.191965138,0.095116242
-0.82918787,-0.451115072,-0.330064923,-0.496386707,-0.712412238,-0.250915229,0.971556604,-2.384526968,2.987617731,0.468014373,-1.191965138,0.095116242
-0.897455692,-0.37518084,-0.231975421,-0.261523008,-0.434571534,-0.060873449,1.017361522,-1.87324357,1.886401892,0.38459186,-1.317851433,0.172842777
-0.897455692,-0.37518084,-0.231975421,-0.261523008,-0.434571534,-0.060873449,1.017361522,-1.87324357,1.886401892,0.38459186,-1.317851433,0.172842777
-0.897455692,-0.37518084,-0.231975421,-0.261523008,-0.434571534,-0.060873449,1.017361522,-1.87324357,1.886401892,0.38459186,-1.317851433,0.172842777
-0.897455692,-0.37518084,-0.231975421,-0.261523008,-0.434571534,-0.060873449,1.017361522,-1.87324357,1.886401892,0.38459186,-1.317851433,0.172842777
-0.897455692,-0.37518084,-0.231975421,-0.261523008,-0.434571534,-0.060873449,1.017361522,-1.87324357,1.886401892,0.38459186,-1.317851433,0.172842777
-0.897455692,-0.37518084,-0.231975421,-0.261523008,-0.434571534,-0.060873449,1.017361522,-1.87324357,1.886401892,0.38459186,-1.317851433,0.172842777
-0.897455692,-0.37518084,-0.231975421,-0.261523008,-0.434571534,-0.060873449,1.017361522,-1.87324357,1.886401892,0.38459186,-1.317851433,0.172842777
-0.897455692,-0.37518084,-0.231975421,-0.261523008,-0.434571534,-0.060873449,1.017361522,-1.87324357,1.886401892,0.38459186,-1.317851433,0.172842777
-0.897455692,-0.37518084,-0.231975421,-0.261523008,-0.434571534,-0.060873449,1.017361522,-1.87324357,1.886401892,0.38459186,-1.317851433,0.172842777
-0.897455692,-0.37518084,-0.231975421,-0.261523008,-0.434571534,-0.060873449,1.017361522,-1.87324357,1.886401892,0.38459186,-1.317851433,0.172842777
-0.897455692,-0.37518084,-0.231975421,-0.261523008,-0.434571534,-0.060873449,1.017361522,-1.87324357,1.886401892,0.38459186,-1.317851433,0.172842777
-0.897455692,-0.37518084,-0.231975421,-0.261523008,-0.434571534,-0.060873449,1.017361522,-1.87324357,1.886401892,0.38459186,-1.317851433,0.172842777
-0.922971785,-0.346144527,-0.168247283,-0.211730182,-0.283493191,-0.145811558,2.026809454,-0.708379805,0.586478114,0.353458452,-1.390487443,0.244595983
-0.922971785,-0.346144527,-0.168247283,-0.211730182,-0.283493191,-0.145811558,2.026809454,-0.708379805,0.586478114,0.353458452,-1.390487443,0.244595983
-0.922971785,-0.346144527,-0.168247283,-0.211730182,-0.283493191,-0.145811558,2.026809454,-0.708379805,0.586478114,0.353458452,-1.390487443,0.244595983
-0.922971785,-0.346144527,-0.168247283,-0.211730182,-0.283493191,-0.145811558,2.026809454,-0.708379805,0.586478114,0.353458452,-1.390487443,0.244595983
-0.922971785,-0.346144527,-0.168247283,-0.211730182,-0.283493191,-0.145811558,2.026809454,-0.708379805,0.586478114,0.353458452,-1.390487443,0.244595983
-0.922971785,-0.346144527,-0.168247283,-0.211730182,-0.283493191,-0.145811558,2.026809454,-0.708379805,0.586478114,0.353458452,-1.390487443,0.244595983
-0.922971785,-0.346144527,-0.168247283,-0.211730182,-0.283493191,-0.145811558,2.026809454,-0.708379805,0.586478114,0.353458452,-1.390487443,0.244595983
-0.922971785,-0.346144527,-0.168247283,-0.211730182,-0.283493191,-0.145811558,2.026809454,-0.708379805,0.586478114,0.353458452,-1.390487443,0.244595983
-0.922971785,-0.346144527,-0.168247283,-0.211730182,-0.283493191,-0.145811558,2.026809454,-0.708379805,0.586478114,0.353458452,-1.390487443,0.244595983
-0.922971785,-0.346144527,-0.168247283,-0.211730182,-0.283493191,-0.145811558,2.026809454,-0.708379805,0.586478114,0.353458452,-1.390487443,0.244595983
-0.922971785,-0.346144527,-0.168247283,-0.211730182,-0.283493191,-0.145811558,2.026809454,-0.708379805,0.586478114,0.353458452,-1.390487443,0.244595983
-0.922971785,-0.346144527,-0.168247283,-0.211730182,-0.283493191,-0.145811558,2.026809454,-0.708379805,0.586478114,0.353458452,-1.390487443,0.244595983
-0.930546522,-0.346210748,-0.119254023,-0.121178091,-0.370585114,-0.245494604,1.898938417,-0.50690943,0.051844556,0.353529043,-1.44333626,0.334135526
-0.930546522,-0.346210748,-0.119254023,-0.121178091,-0.370585114,-0.245494604,1.898938417,-0.50690943,0.051844556,0.353529043,-1.44333626,0.334135526
-0.930546522,-0.346210748,-0.119254023,-0.121178091,-0.370585114,-0.245494604,1.898938417,-0.50690943,0.051844556,0.353529043,-1.44333626,0.334135526
-0.930546522,-0.346210748,-0.119254023,-0.121178091,-0.370585114,-0.245494604,1.898938417,-0.50690943,0.051844556,0.353529043,-1.44333626,0.334135526
-0.930546522,-0.346210748,-0.119254023,-0.121178091,-0.370585114,-0.245494604,1.898938417,-0.50690943,0.051844556,0.353529043,-1.44333626,0.334135526
-0.930546522,-0.346210748,-0.119254023,-0.121178091,-0.370585114,-0.245494604,1.898938417,-0.50690943,0.051844556,0.353529043,-1.44333626,0.334135526
-0.930546522,-0.346210748,-0.119254023,-0.121178091,-0.370585114,-0.245494604,1.898938417,-0.50690943,0.051844556,0.353529043,-1.44333626,0.334135526
-0.930546522,-0.346210748,-0.119254023,-0.121178091,-0.370585114,-0.245494604,1.898938417,-0.50690943,0.051844556,0.353529043,-1.44333626,0.334135526
-0.930546522,-0.346210748,-0.119254023,-0.121178091,-0.370585114,-0.245494604,1.898938417,-0.50690943,0.051844556,0.353529043,-1.44333626,0.334135526
-0.930872858,-0.356879532,-0.078183427,-0.056612074,-0.270377636,-0.180913627,0.858392477,-0.563013315,-0.289423883,0.364925327,-1.48700362,0.394168009
-0.930872858,-0.356879532,-0.078183427,-0.056612074,-0.270377636,-0.180913627,0.858392477,-0.563013315,-0.289423883,0.364925327,-1.48700362,0.394168009
-0.930872858,-0.356879532,-0.078183427,-0.056612074,-0.270377636,-0.180913627,0.858392477,-0.563013315,-0.289423883,0.364925327,-1.48700362,0.394168009
-0.930872858,-0.356879532,-0.078183427,-0.056612074,-0.270377636,-0.180913627,0.858392477,-0.563013315,-0.289423883,0.364925327,-1.48700362,0.394168009
-0.930872858,-0.356879532,-0.078183427,-0.056612074,-0.270377636,-0.180913627,0.858392477,-0.563013315,-0.289423883,0.364925327,-1.48700362,0.394168009
-0.930872858,-0.356879532,-0.078183427,-0.056612074,-0.270377636,-0.180913627,0.858392477,-0.563013315,-0.289423883,0.364925327,-1.48700362,0.394168009
-0.930872858,-0.356879532,-0.078183427,-0.056612074,-0.270377636,-0.180913627,0.858392477,-0.563013315,-0.289423883,0.364925327,-1.48700362,0.394168009
-0.930872858,-0.356879532,-0.078183427,-0.056612074,-0.270377636,-0.180913627,0.858392477,-0.563013315,-0.289423883,0.364925327,-1.48700362,0.394168009
-0.930872858,-0.356879532,-0.078183427,-0.056612074,-0.270377636,-0.180913627,0.858392477,-0.563013315,-0.289423883,0.364925327,-1.48700362,0.394168009
-0.930872858,-0.356879532,-0.078183427,-0.056612074,-0.270377636,-0.180913627,0.858392477,-0.563013315,-0.289423883,0.364925327,-1.48700362,0.394168009
-0.930872858,-0.356879532,-0.078183427,-0.056612074,-0.270377636,-0.180913627,0.858392477,-0.563013315,-0.289423883,0.364925327,-1.48700362,0.394168009
-0.930872858,-0.356879532,-0.078183427,-0.056612074,-0.270377636,-0.180913627,0.858392477,-0.563013315,-0.289423883,0.364925327,-1.48700362,0.394168009
-0.926080406,-0.374271095,-0.047922306,-0.02479893,-0.090785265,-0.177528977,0.824240088,-0.404105276,-0.390226692,0.383610612,-1.519094986,0.431846732
-0.926080406,-0.374271095,-0.047922306,-0.02479893,-0.090785265,-0.177528977,0.824240088,-0.404105276,-0.390226692,0.383610612,-1.519094986,0.431846732
-0.926080406,-0.374271095,-0.047922306,-0.02479893,-0.090785265,-0.177528977,0.824240088,-0.404105276,-0.390226692,0.383610612,-1.519094986,0.431846732
-0.926080406,-0.374271095,-0.047922306,-0.02479893,-0.090785265,-0.177528977,0.824240088,-0.404105276,-0.390226692,0.383610612,-1.519094986,0.431846732
-0.926080406,-0.374271095,-0.047922306,-0.02479893,-0.090785265,-0.177528977,0.824240088,-0.404105276,-0.390226692,0.383610612,-1.519094986,0.431846732
-0.926080406,-0.374271095,-0.047922306,-0.02479893,-0.090785265,-0.177528977,0.824240088,-0.404105276,-0.390226692,0.383610612,-1.519094986,0.431846732
-0.926080406,-0.374271095,-0.047922306,-0.02479893,-0.090785265,-0.177528977,0.824240088,-0.404105276,-0.390226692,0.383610612,-1.519094986,0.431846732
-0.926080406,-0.374271095,-0.047922306,-0.02479893,-0.090785265,-0.177528977,0.824240088,-0.404105276,-0.390226692,0.383610612,-1.519094986,0.431846732
-0.926080406,-0.374271095,-0.047922306,-0.02479893,-0.090785265,-0.177528977,0.824240088,-0.404105276,-0.390226692,0.383610612,-1.519094986,0.431846732
-0.926080406,-0.374271095,-0.047922306,-0.02479893,-0.090785265,-0.177528977,0.824240088,-0.404105276,-0.390226692,0.383610612,-1.519094986,0.431846732
-0.926080406,-0.374271095,-0.047922306,-0.02479893,-0.090785265,-0.177528977,0.824240088,-0.404105276,-0.390226692,0.383610612,-1.519094986,0.431846732
-0.926080406,-0.374271095,-0.047922306,-0.02479893,-0.090785265,-0.177528977,0.824240088,-0.404105276,-0.390226692,0.383610612,-1.519094986,0.431846732
-0.922606766,-0.382816255,-0.047419537,-0.103742301,-0.287440121,-0.135414183,-1.500567555,0.423953354,0.095276721,0.392842851,-1.519444169,0.424243088
-0.922606766,-0.382816255,-0.047419537,-0.103742301,-0.287440121,-0.135414183,-1.500567555,0.423953354,0.095276721,0.392842851,-1.519444169,0.424243088
-0.922606766,-0.382816255,-0.047419537,-0.103742301,-0.287440121,-0.135414183,-1.500567555,0.423953354,0.095276721,0.392842851,-1.519444169,0.424243088
-0.922606766,-0.382816255,-0.047419537,-0.103742301,-0.287440121,-0.135414183,-1.500567555,0.423953354,0.095276721,0.392842851,-1.519444169,0.424243088
-0.922606766,-0.382816255,-0.047419537,-0.103742301,-0.287440121,-0.135414183,-1.500567555,0.423953354,0.095276721,0.392842851,-1.519444169,0.424243088
-0.922606766,-0.382816255,-0.047419537,-0.103742301,-0.287440121,-0.135414183,-1.500567555,0.423953354,0.095276721,0.392842851,-1.519444169,0.424243088
-0.922606766,-0.382816255,-0.047419537,-0.103742301,-0.287440121,-0.135414183,-1.500567555,0.423953354,0.095276721,0.392842851,-1.519444169,0.424243088
-0.922606766,-0.382816255,-0.047419537,-0.103742301,-0.287440121,-0.135414183,-1.500567555,0.423953354,0.095276721,0.392842851,-1.519444169,0.424243088
-0.922606766,-0.382816255,-0.047419537,-0.103742301,-0.287440121,-0.135414183,-1.500567555,0.423953354,0.095276721,0.392842851,-1.519444169,0.424243088
-0.922606766,-0.382816255,-0.047419537,-0.103742301,-0.287440121,-0.135414183,-1.500567555,0.423953354,0.095276721,0.392842851,-1.519444169,0.424243088
-0.921037078,-0.380903482,-0.081259504,0.044345975,0.202224195,-0.095790863,-0.554444551,0.18165645,-0.178958789,0.390773256,-1.482798081,0.370240243
-0.921037078,-0.380903482,-0.081259504,0.044345975,0.202224195,-0.095790863,-0.554444551,0.18165645,-0.178958789,0.390773256,-1.482798081,0.370240243
-0.921037078,-0.380903482,-0.081259504,0.044345975,0.202224195,-0.095790863,-0.554444551,0.18165645,-0.178958789,0.390773256,-1.482798081,0.370240243
-0.921037078,-0.380903482,-0.081259504,0.044345975,0.202224195,-0.095790863,-0.554444551,0.18165645,-0.178958789,0.390773256,-1.482798081,0.370240243
-0.921037078,-0.380903482,-0.081259504,0.044345975,0.202224195,-0.095790863,-0.554444551,0.18165645,-0.178958789,0.390773256,-1.482798081,0.370240243
-0.921037078,-0.380903482,-0.081259504,0.044345975,0.202224195,-0.095790863,-0.554444551,0.18165645,-0.178958789,0.390773256,-1.482798081,0.370240243
-0.921037078,-0.380903482,-0.081259504,0.044345975,0.202224195,-0.095790863,-0.554444551,0.18165645,-0.178958789,0.390773256,-1.482798081,0.370240243
-0.921037078,-0.380903482,-0.081259504,0.044345975,0.202224195,-0.095790863,-0.554444551,0.18165645,-0.178958789,0.390773256,-1.482798081,0.370240243
-0.921037078,-0.380903482,-0.081259504,0.044345975,0.202224195,-0.095790863,-0.554444551,0.18165645,-0.178958789,0.390773256,-1.482798081,0.370240243
-0.920091391,-0.38035804,-0.093592219,-0.000697613,-0.107540667,0.038291812,-1.156913757,-0.006731951,0.077891447,0.390183414,-1.469424433,0.339662819
-0.920091391,-0.38035804,-0.093592219,-0.000697613,-0.107540667,0.038291812,-1.156913757,-0.006731951,0.077891447,0.390183414,-1.469424433,0.339662819
-0.920091391,-0.38035804,-0.093592219,-0.000697613,-0.107540667,0.038291812,-1.156913757,-0.006731951,0.077891447,0.390183414,-1.469424433,0.339662819
-0.920091391,-0.38035804,-0.093592219,-0.000697613,-0.107540667,0.038291812,-1.156913757,-0.006731951,0.077891447,0.390183414,-1.469424433,0.339662819
-0.920091391,-0.38035804,-0.093592219,-0.000697613,-0.107540667,0.038291812,-1.156913757,-0.006731951,0.077891447,0.390183414,-1.469424433,0.339662819
-0.920091391,-0.38035804,-0.093592219,-0.000697613,-0.107540667,0.038291812,-1.156913757,-0.006731951,0.077891447,0.390183414,-1.469424433,0.339662819
-0.920091391,-0.38035804,-0.093592219,-0.000697613,-0.107540667,0.038291812,-1.156913757,-0.006731951,0.077891447,0.390183414,-1.469424433,0.339662819
-0.920091391,-0.38035804,-0.093592219,-0.000697613,-0.107540667,0.038291812,-1.156913757,-0.006731951,0.077891447,0.390183414,-1.469424433,0.339662819
-0.920429826,-0.37407425,-0.113479652,-0.049721599,0.005972207,0.080304682,-0.884350836,0.155376285,-0.048694994,0.383398353,-1.448125524,0.291420856
-0.920429826,-0.37407425,-0.113479652,-0.049721599,0.005972207,0.080304682,-0.884350836,0.155376285,-0.048694994,0.383398353,-1.448125524,0.291420856
-0.920429826,-0.37407425,-0.113479652,-0.049721599,0.005972207,0.080304682,-0.884350836,0.155376285,-0.048694994,0.383398353,-1.448125524,0.291420856
-0.920429826,-0.37407425,-0.113479652,-0.049721599,0.005972207,0.080304682,-0.884350836,0.155376285,-0.048694994,0.383398353,-1.448125524,0.291420856
-0.920429826,-0.37407425,-0.113479652,-0.049721599,0.005972207,0.080304682,-0.884350836,0.155376285,-0.048694994,0.383398353,-1.448125524,0.291420856
-0.920429826,-0.37407425,-0.113479652,-0.049721599,0.005972207,0.080304682,-0.884350836,0.155376285,-0.048694994,0.383398353,-1.448125524,0.291420856
-0.920429826,-0.37407425,-0.113479652,-0.049721599,0.005972207,0.080304682,-0.884350836,0.155376285,-0.048694994,0.383398353,-1.448125524,0.291420856
-0.920429826,-0.37407425,-0.113479652,-0.049721599,0.005972207,0.080304682,-0.884350836,0.155376285,-0.048694994,0.383398353,-1.448125524,0.291420856
-0.920429826,-0.37407425,-0.113479652,-0.049721599,0.005972207,0.080304682,-0.884350836,0.155376285,-0.048694994,0.383398353,-1.448125524,0.291420856
-0.918044031,-0.375662506,-0.126778975,0.042985618,0.112556249,0.094671965,-0.350373834,0.094233245,-0.117070004,0.385111527,-1.433567444,0.267570993
-0.918044031,-0.375662506,-0.126778975,0.042985618,0.112556249,0.094671965,-0.350373834,0.094233245,-0.117070004,0.385111527,-1.433567444,0.267570993
-0.918044031,-0.375662506,-0.126778975,0.042985618,0.112556249,0.094671965,-0.350373834,0.094233245,-0.117070004,0.385111527,-1.433567444,0.267570993
-0.918044031,-0.375662506,-0.126778975,0.042985618,0.112556249,0.094671965,-0.350373834,0.094233245,-0.117070004,0.385111527,-1.433567444,0.267570993
-0.918044031,-0.375662506,-0.126778975,0.042985618,0.112556249,0.094671965,-0.350373834,0.094233245,-0.117070004,0.385111527,-1.433567444,0.267570993
-0.918044031,-0.375662506,-0.126778975,0.042985618,0.112556249,0.094671965,-0.350373834,0.094233245,-0.117070004,0.385111527,-1.433567444,0.267570993
-0.918044031,-0.375662506,-0.126778975,0.042985618,0.112556249,0.094671965,-0.350373834,0.094233245,-0.117070004,0.385111527,-1.433567444,0.267570993
-0.918044031,-0.375662506,-0.126778975,0.042985618,0.112556249,0.094671965,-0.350373834,0.094233245,-0.117070004,0.385111527,-1.433567444,0.267570993
-0.918044031,-0.375662506,-0.126778975,0.042985618,0.112556249,0.094671965,-0.350373834,0.094233245,-0.117070004,0.385111527,-1.433567444,0.267570993
-0.918044031,-0.375662506,-0.126778975,0.042985618,0.112556249,0.094671965,-0.350373834,0.094233245,-0.117070004,0.385111527,-1.433567444,0.267570993
-0.918044031,-0.375662506,-0.126778975,0.042985618,0.112556249,0.094671965,-0.350373834,0.094233245,-0.117070004,0.385111527,-1.433567444,0.267570993
-0.918044031,-0.375662506,-0.126778975,0.042985618,0.112556249,0.094671965,-0.350373834,0.094233245,-0.117070004,0.385111527,-1.433567444,0.267570993
-0.918051302,-0.373746037,-0.132271633,-0.036413789,-0.03552416,0.006262064,-0.740907669,0.20894137,-0.029202307,0.383044461,-1.427702353,0.24406666
-0.918051302,-0.373746037,-0.132271633,-0.036413789,-0.03552416,0.006262064,-0.740907669,0.20894137,-0.029202307,0.383044461,-1.427702353,0.24406666
-0.918051302,-0.373746037,-0.132271633,-0.036413789,-0.03552416,0.006262064,-0.740907669,0.20894137,-0.029202307,0.383044461,-1.427702353,0.24406666
-0.918051302,-0.373746037,-0.132271633,-0.036413789,-0.03552416,0.006262064,-0.740907669,0.20894137,-0.029202307,0.383044461,-1.427702353,0.24406666
-0.918051302,-0.373746037,-0.132271633,-0.036413789,-0.03552416,0.006262064,-0.740907669,0.20894137,-0.029202307,0.383044461,-1.427702353,0.24406666
-0.918051302,-0.373746037,-0.132271633,-0.036413789,-0.03552416,0.006262064,-0.740907669,0.20894137,-0.029202307,0.383044461,-1.427702353,0.24406666
-0.92196244,-0.364843816,-0.129900217,-0.009980023,0.114250034,-0.080735266,-0.073474355,0.175538048,-0.123872407,0.373465051,-1.430822362,0.23450101
-0.92196244,-0.364843816,-0.129900217,-0.009980023,0.114250034,-0.080735266,-0.073474355,0.175538048,-0.123872407,0.373465051,-1.430822362,0.23450101
-0.92196244,-0.364843816,-0.129900217,-0.009980023,0.114250034,-0.080735266,-0.073474355,0.175538048,-0.123872407,0.373465051,-1.430822362,0.23450101
-0.92196244,-0.364843816,-0.129900217,-0.009980023,0.114250034,-0.080735266,-0.073474355,0.175538048,-0.123872407,0.373465051,-1.430822362,0.23450101
-0.92196244,-0.364843816,-0.129900217,-0.009980023,0.114250034,-0.080735266,-0.073474355,0.175538048,-0.123872407,0.373465051,-1.430822362,0.23450101
-0.92196244,-0.364843816,-0.129900217,-0.009980023,0.114250034,-0.080735266,-0.073474355,0.175538048,-0.123872407,0.373465051,-1.430822362,0.23450101
-0.92196244,-0.364843816,-0.129900217,-0.009980023,0.114250034,-0.080735266,-0.073474355,0.175538048,-0.123872407,0.373465051,-1.430822362,0.23450101
-0.92196244,-0.364843816,-0.129900217,-0.009980023,0.114250034,-0.080735266,-0.073474355,0.175538048,-0.123872407,0.373465051,-1.430822362,0.23450101
-0.92196244,-0.364843816,-0.129900217,-0.009980023,0.114250034,-0.080735266,-0.073474355,0.175538048,-0.123872407,0.373465051,-1.430822362,0.23450101
-0.919808149,-0.369308352,-0.132532001,-0.027729154,0.0088512,-0.017983496,-0.37038213,0.18082802,-0.057957366,0.378264637,-1.427694645,0.228320183
-0.919808149,-0.369308352,-0.132532001,-0.027729154,0.0088512,-0.017983496,-0.37038213,0.18082802,-0.057957366,0.378264637,-1.427694645,0.228320183
-0.919808149,-0.369308352,-0.132532001,-0.027729154,0.0088512,-0.017983496,-0.37038213,0.18082802,-0.057957366,0.378264637,-1.427694645,0.228320183
-0.919808149,-0.369308352,-0.132532001,-0.027729154,0.0088512,-0.017983496,-0.37038213,0.18082802,-0.057957366,0.378264637,-1.427694645,0.228320183
-0.919808149,-0.369308352,-0.132532001,-0.027729154,0.0088512,-0.017983496,-0.37038213,0.18082802,-0.057957366,0.378264637,-1.427694645,0.228320183
-0.919808149,-0.369308352,-0.132532001,-0.027729154,0.0088512,-0.017983496,-0.37038213,0.18082802,-0.057957366,0.378264637,-1.427694645,0.228320183
-0.919808149,-0.369308352,-0.132532001,-0.027729154,0.0088512,-0.017983496,-0.37038213,0.18082802,-0.057957366,0.378264637,-1.427694645,0.228320183
-0.919808149,-0.369308352,-0.132532001,-0.027729154,0.0088512,-0.017983496,-0.37038213,0.18082802,-0.057957366,0.378264637,-1.427694645,0.228320183
-0.919808149,-0.369308352,-0.132532001,-0.027729154,0.0088512,-0.017983496,-0.37038213,0.18082802,-0.057957366,0.378264637,-1.427694645,0.228320183
-0.919808149,-0.369308352,-0.132532001,-0.027729154,0.0088512,-0.017983496,-0.37038213,0.18082802,-0.057957366,0.378264637,-1.427694645,0.228320183
-0.919808149,-0.369308352,-0.132532001,-0.027729154,0.0088512,-0.017983496,-0.37038213,0.18082802,-0.057957366,0.378264637,-1.427694645,0.228320183
-0.919808149,-0.369308352,-0.132532001,-0.027729154,0.0088512,-0.017983496,-0.37038213,0.18082802,-0.057957366,0.378264637,-1.427694645,0.228320183
-0.919808149,-0.369308352,-0.132532001,-0.027729154,0.0088512,-0.017983496,-0.37038213,0.18082802,-0.057957366,0.378264637,-1.427694645,0.228320183
-0.919808149,-0.369308352,-0.132532001,-0.027729154,0.0088512,-0.017983496,-0.37038213,0.18082802,-0.057957366,0.378264637,-1.427694645,0.228320183
-0.919808149,-0.369308352,-0.132532001,-0.027729154,0.0088512,-0.017983496,-0.37038213,0.18082802,-0.057957366,0.378264637,-1.427694645,0.228320183
-0.921559572,-0.356878012,-0.152859867,0.026879072,-0.007317513,-0.017126143,-0.243639112,0.142140016,-0.069955967,0.364923698,-1.406422065,0.209409288
-0.921559572,-0.356878012,-0.152859867,0.026879072,-0.007317513,-0.017126143,-0.243639112,0.142140016,-0.069955967,0.364923698,-1.406422065,0.209409288
-0.921559572,-0.356878012,-0.152859867,0.026879072,-0.007317513,-0.017126143,-0.243639112,0.142140016,-0.069955967,0.364923698,-1.406422065,0.209409288
-0.921559572,-0.356878012,-0.152859867,0.026879072,-0.007317513,-0.017126143,-0.243639112,0.142140016,-0.069955967,0.364923698,-1.406422065,0.209409288
-0.921559572,-0.356878012,-0.152859867,0.026879072,-0.007317513,-0.017126143,-0.243639112,0.142140016,-0.069955967,0.364923698,-1.406422065,0.209409288
-0.921559572,-0.356878012,-0.152859867,0.026879072,-0.007317513,-0.017126143,-0.243639112,0.142140016,-0.069955967,0.364923698,-1.406422065,0.209409288
-0.921559572,-0.356878012,-0.152859867,0.026879072,-0.007317513,-0.017126143,-0.243639112,0.142140016,-0.069955967,0.364923698,-1.406422065,0.209409288
-0.921559572,-0.356878012,-0.152859867,0.026879072,-0.007317513,-0.017126143,-0.243639112,0.142140016,-0.069955967,0.364923698,-1.406422065,0.209409288
-0.921559572,-0.356878012,-0.152859867,0.026879072,-0.007317513,-0.017126143,-0.243639112,0.142140016,-0.069955967,0.364923698,-1.406422065,0.209409288
-0.921559572,-0.356878012,-0.152859867,0.026879072,-0.007317513,-0.017126143,-0.243639112,0.142140016,-0.069955967,0.364923698,-1.406422065,0.209409288
-0.920863271,-0.352946818,-0.165648594,-0.007554471,-0.081927419,-0.006107271,-0.372349918,0.181366965,-0.118361533,0.360718752,-1.392815732,0.195520188
-0.920863271,-0.352946818,-0.165648594,-0.007554471,-0.081927419,-0.006107271,-0.372349918,0.181366965,-0.118361533,0.360718752,-1.392815732,0.195520188
-0.920863271,-0.352946818,-0.165648594,-0.007554471,-0.081927419,-0.006107271,-0.372349918,0.181366965,-0.118361533,0.360718752,-1.392815732,0.195520188
-0.920863271,-0.352946818,-0.165648594,-0.007554471,-0.081927419,-0.006107271,-0.372349918,0.181366965,-0.118361533,0.360718752,-1.392815732,0.195520188
-0.917393327,-0.357745379,-0.174378842,0.034950078,0.048206747,0.00918448,-0.100536555,0.186561152,-0.183231711,0.365852371,-1.382956411,0.184236978
-0.917393327,-0.357745379,-0.174378842,0.034950078,0.048206747,0.00918448,-0.100536555,0.186561152,-0.183231711,0.365852371,-1.382956411,0.184236978
-0.917393327,-0.357745379,-0.174378842,0.034950078,0.048206747,0.00918448,-0.100536555,0.186561152,-0.183231711,0.365852371,-1.382956411,0.184236978
-0.917393327,-0.357745379,-0.174378842,0.034950078,0.048206747,0.00918448,-0.100536555,0.186561152,-0.183231711,0.365852371,-1.382956411,0.184236978
-0.917393327,-0.357745379,-0.174378842,0.034950078,0.048206747,0.00918448,-0.100536555,0.186561152,-0.183231711,0.365852371,-1.382956411,0.184236978
-0.917393327,-0.357745379,-0.174378842,0.034950078,0.048206747,0.00918448,-0.100536555,0.186561152,-0.183231711,0.365852371,-1.382956411,0.184236978
-0.917393327,-0.357745379,-0.174378842,0.034950078,0.048206747,0.00918448,-0.100536555,0.186561152,-0.183231711,0.365852371,-1.382956411,0.184236978
-0.912628472,-0.368692815,-0.176564544,0.03157413,0.017665774,0.077638745,0.302043557,0.012291457,-0.103510834,0.37760238,-1.37968921,0.184975227
-0.912628472,-0.368692815,-0.176564544,0.03157413,0.017665774,0.077638745,0.302043557,0.012291457,-0.103510834,0.37760238,-1.37968921,0.184975227
-0.912628472,-0.368692815,-0.176564544,0.03157413,0.017665774,0.077638745,0.302043557,0.012291457,-0.103510834,0.37760238,-1.37968921,0.184975227
-0.912628472,-0.368692815,-0.176564544,0.03157413,0.017665774,0.077638745,0.302043557,0.012291457,-0.103510834,0.37760238,-1.37968921,0.184975227
-0.912628472,-0.368692815,-0.176564544,0.03157413,0.017665774,0.077638745,0.302043557,0.012291457,-0.103510834,0.37760238,-1.37968921,0.184975227
-0.912628472,-0.368692815,-0.176564544,0.03157413,0.017665774,0.077638745,0.302043557,0.012291457,-0.103510834,0.37760238,-1.37968921,0.184975227
-0.912628472,-0.368692815,-0.176564544,0.03157413,0.017665774,0.077638745,0.302043557,0.012291457,-0.103510834,0.37760238,-1.37968921,0.184975227
-0.912628472,-0.368692815,-0.176564544,0.03157413,0.017665774,0.077638745,0.302043557,0.012291457,-0.103510834,0.37760238,-1.37968921,0.184975227
-0.912628472,-0.368692815,-0.176564544,0.03157413,0.017665774,0.077638745,0.302043557,0.012291457,-0.103510834,0.37760238,-1.37968921,0.184975227
-0.912628472,-0.368692815,-0.176564544,0.03157413,0.017665774,0.077638745,0.302043557,0.012291457,-0.103510834,0.37760238,-1.37968921,0.184975227
-0.912628472,-0.368692815,-0.176564544,0.03157413,0.017665774,0.077638745,0.302043557,0.012291457,-0.103510834,0.37760238,-1.37968921,0.184975227
-0.911087334,-0.37448594,-0.172280163,0.069064975,-0.122903377,0.054402947,0.073436946,0.331190974,-0.266209513,0.383842322,-1.383909998,0.196826566
-0.911087334,-0.37448594,-0.172280163,0.069064975,-0.122903377,0.054402947,0.073436946,0.331190974,-0.266209513,0.383842322,-1.383909998,0.196826566
-0.911087334,-0.37448594,-0.172280163,0.069064975,-0.122903377,0.054402947,0.073436946,0.331190974,-0.266209513,0.383842322,-1.383909998,0.196826566
-0.911087334,-0.37448594,-0.172280163,0.069064975,-0.122903377,0.054402947,0.073436946,0.331190974,-0.266209513,0.383842322,-1.383909998,0.196826566
-0.911087334,-0.37448594,-0.172280163,0.069064975,-0.122903377,0.054402947,0.073436946,0.331190974,-0.266209513,0.383842322,-1.383909998,0.196826566
-0.911087334,-0.37448594,-0.172280163,0.069064975,-0.122903377,0.054402947,0.073436946,0.331190974,-0.266209513,0.383842322,-1.383909998,0.196826566
-0.908482194,-0.373899549,-0.186706558,0.151176393,-0.039566576,-0.032839775,-0.337313682,0.082330696,-0.123602957,0.383209974,-1.368103711,0.180014345
-0.908482194,-0.373899549,-0.186706558,0.151176393,-0.039566576,-0.032839775,-0.337313682,0.082330696,-0.123602957,0.383209974,-1.368103711,0.180014345
-0.908482194,-0.373899549,-0.186706558,0.151176393,-0.039566576,-0.032839775,-0.337313682,0.082330696,-0.123602957,0.383209974,-1.368103711,0.180014345