gravityX,gravityY,gravityZ,accelX,accelY,accelZ,rotRateX,rotRatY,rotRateZ,attPitch,attRoll,attYaw
-0.947332382,-0.244623244,-0.206690297,0.017904282,0.017831862,0.029611945,-0.055748355,0.084792227,0.005397961,0.247131115,-1.355981332,0.199381442
-0.947332382,-0.244623244,-0.206690297,0.017904282,0.017831862,0.029611945,-0.055748355,0.084792227,0.005397961,0.247131115,-1.355981332,0.199381442
-0.947332382,-0.244623244,-0.206690297,0.017904282,0.017831862,0.029611945,-0.055748355,0.084792227,0.005397961,0.247131115,-1.355981332,0.199381442
-0.947332382,-0.244623244,-0.206690297,0.017904282,0.017831862,0.029611945,-0.055748355,0.084792227,0.005397961,0.247131115,-1.355981332,0.199381442
-0.947332382,-0.244623244,-0.206690297,0.017904282,0.017831862,0.029611945,-0.055748355,0.084792227,0.005397961,0.247131115,-1.355981332,0.199381442
-0.947332382,-0.244623244,-0.206690297,0.017904282,0.017831862,0.029611945,-0.055748355,0.084792227,0.005397961,0.247131115,-1.355981332,0.199381442
-0.946491659,-0.245858237,-0.209063306,0.005588949,0.02442269,0.052904785,0.008021691,0.07864964,-0.00754612,0.248405002,-1.353404549,0.200878137
-0.946491659,-0.245858237,-0.209063306,0.005588949,0.02442269,0.052904785,0.008021691,0.07864964,-0.00754612,0.248405002,-1.353404549,0.200878137
-0.946491659,-0.245858237,-0.209063306,0.005588949,0.02442269,0.052904785,0.008021691,0.07864964,-0.00754612,0.248405002,-1.353404549,0.200878137
-0.946491659,-0.245858237,-0.209063306,0.005588949,0.02442269,0.052904785,0.008021691,0.07864964,-0.00754612,0.248405002,-1.353404549,0.200878137
-0.946491659,-0.245858237,-0.209063306,0.005588949,0.02442269,0.052904785,0.008021691,0.07864964,-0.00754612,0.248405002,-1.353404549,0.200878137
-0.946491659,-0.245858237,-0.209063306,0.005588949,0.02442269,0.052904785,0.008021691,0.07864964,-0.00754612,0.248405002,-1.353404549,0.200878137
-0.946491659,-0.245858237,-0.209063306,0.005588949,0.02442269,0.052904785,0.008021691,0.07864964,-0.00754612,0.248405002,-1.353404549,0.200878137
-0.946491659,-0.245858237,-0.209063306,0.005588949,0.02442269,0.052904785,0.008021691,0.07864964,-0.00754612,0.248405002,-1.353404549,0.200878137
-0.946491659,-0.245858237,-0.209063306,0.005588949,0.02442269,0.052904785,0.008021691,0.07864964,-0.00754612,0.248405002,-1.353404549,0.200878137
-0.946491659,-0.245858237,-0.209063306,0.005588949,0.02442269,0.052904785,0.008021691,0.07864964,-0.00754612,0.248405002,-1.353404549,0.200878137
-0.946491659,-0.245858237,-0.209063306,0.005588949,0.02442269,0.052904785,0.008021691,0.07864964,-0.00754612,0.248405002,-1.353404549,0.200878137
-0.946491659,-0.245858237,-0.209063306,0.005588949,0.02442269,0.052904785,0.008021691,0.07864964,-0.00754612,0.248405002,-1.353404549,0.200878137
-0.946491659,-0.245858237,-0.209063306,0.005588949,0.02442269,0.052904785,0.008021691,0.07864964,-0.00754612,0.248405002,-1.353404549,0.200878137
-0.946491659,-0.245858237,-0.209063306,0.005588949,0.02442269,0.052904785,0.008021691,0.07864964,-0.00754612,0.248405002,-1.353404549,0.200878137
-0.946491659,-0.245858237,-0.209063306,0.005588949,0.02442269,0.052904785,0.008021691,0.07864964,-0.00754612,0.248405002,-1.353404549,0.200878137
-0.945562899,-0.245085359,-0.214112103,0.003058076,0.001707658,0.028916121,-0.122698173,0.141045392,-0.020307189,0.24760773,-1.34811286,0.195790054
-0.945562899,-0.245085359,-0.214112103,0.003058076,0.001707658,0.028916121,-0.122698173,0.141045392,-0.020307189,0.24760773,-1.34811286,0.195790054
-0.945562899,-0.245085359,-0.214112103,0.003058076,0.001707658,0.028916121,-0.122698173,0.141045392,-0.020307189,0.24760773,-1.34811286,0.195790054
-0.945562899,-0.245085359,-0.214112103,0.003058076,0.001707658,0.028916121,-0.122698173,0.141045392,-0.020307189,0.24760773,-1.34811286,0.195790054
-0.945562899,-0.245085359,-0.214112103,0.003058076,0.001707658,0.028916121,-0.122698173,0.141045392,-0.020307189,0.24760773,-1.34811286,0.195790054
-0.945562899,-0.245085359,-0.214112103,0.003058076,0.001707658,0.028916121,-0.122698173,0.141045392,-0.020307189,0.24760773,-1.34811286,0.195790054
-0.945562899,-0.245085359,-0.214112103,0.003058076,0.001707658,0.028916121,-0.122698173,0.141045392,-0.020307189,0.24760773,-1.34811286,0.195790054
-0.945562899,-0.245085359,-0.214112103,0.003058076,0.001707658,0.028916121,-0.122698173,0.141045392,-0.020307189,0.24760773,-1.34811286,0.195790054
-0.945562899,-0.245085359,-0.214112103,0.003058076,0.001707658,0.028916121,-0.122698173,0.141045392,-0.020307189,0.24760773,-1.34811286,0.195790054
-0.945562899,-0.245085359,-0.214112103,0.003058076,0.001707658,0.028916121,-0.122698173,0.141045392,-0.020307189,0.24760773,-1.34811286,0.195790054
-0.945562899,-0.245085359,-0.214112103,0.003058076,0.001707658,0.028916121,-0.122698173,0.141045392,-0.020307189,0.24760773,-1.34811286,0.195790054
-0.945562899,-0.245085359,-0.214112103,0.003058076,0.001707658,0.028916121,-0.122698173,0.141045392,-0.020307189,0.24760773,-1.34811286,0.195790054
-0.945562899,-0.245085359,-0.214112103,0.003058076,0.001707658,0.028916121,-0.122698173,0.141045392,-0.020307189,0.24760773,-1.34811286,0.195790054
-0.945562899,-0.245085359,-0.214112103,0.003058076,0.001707658,0.028916121,-0.122698173,0.141045392,-0.020307189,0.24760773,-1.34811286,0.195790054
-0.945562899,-0.245085359,-0.214112103,0.003058076,0.001707658,0.028916121,-0.122698173,0.141045392,-0.020307189,0.24760773,-1.34811286,0.195790054
-0.945562899,-0.245085359,-0.214112103,0.003058076,0.001707658,0.028916121,-0.122698173,0.141045392,-0.020307189,0.24760773,-1.34811286,0.195790054
-0.945562899,-0.245085359,-0.214112103,0.003058076,0.001707658,0.028916121,-0.122698173,0.141045392,-0.020307189,0.24760773,-1.34811286,0.195790054
-0.945562899,-0.245085359,-0.214112103,0.003058076,0.001707658,0.028916121,-0.122698173,0.141045392,-0.020307189,0.24760773,-1.34811286,0.195790054
-0.945562899,-0.245085359,-0.214112103,0.003058076,0.001707658,0.028916121,-0.122698173,0.141045392,-0.020307189,0.24760773,-1.34811286,0.195790054
-0.945562899,-0.245085359,-0.214112103,0.003058076,0.001707658,0.028916121,-0.122698173,0.141045392,-0.020307189,0.24760773,-1.34811286,0.195790054
-0.945562899,-0.245085359,-0.214112103,0.003058076,0.001707658,0.028916121,-0.122698173,0.141045392,-0.020307189,0.24760773,-1.34811286,0.195790054
-0.943813384,-0.247519597,-0.218975335,0.013576567,0.017859548,-0.022800267,0.176258162,0.116616733,-0.08198946,0.250119347,-1.342818575,0.197166034
-0.943813384,-0.247519597,-0.218975335,0.013576567,0.017859548,-0.022800267,0.176258162,0.116616733,-0.08198946,0.250119347,-1.342818575,0.197166034
-0.943813384,-0.247519597,-0.218975335,0.013576567,0.017859548,-0.022800267,0.176258162,0.116616733,-0.08198946,0.250119347,-1.342818575,0.197166034
-0.943813384,-0.247519597,-0.218975335,0.013576567,0.017859548,-0.022800267,0.176258162,0.116616733,-0.08198946,0.250119347,-1.342818575,0.197166034
-0.943813384,-0.247519597,-0.218975335,0.013576567,0.017859548,-0.022800267,0.176258162,0.116616733,-0.08198946,0.250119347,-1.342818575,0.197166034
-0.943813384,-0.247519597,-0.218975335,0.013576567,0.017859548,-0.022800267,0.176258162,0.116616733,-0.08198946,0.250119347,-1.342818575,0.197166034
-0.943813384,-0.247519597,-0.218975335,0.013576567,0.017859548,-0.022800267,0.176258162,0.116616733,-0.08198946,0.250119347,-1.342818575,0.197166034
-0.943813384,-0.247519597,-0.218975335,0.013576567,0.017859548,-0.022800267,0.176258162,0.116616733,-0.08198946,0.250119347,-1.342818575,0.197166034
-0.943813384,-0.247519597,-0.218975335,0.013576567,0.017859548,-0.022800267,0.176258162,0.116616733,-0.08198946,0.250119347,-1.342818575,0.197166034
-0.943813384,-0.247519597,-0.218975335,0.013576567,0.017859548,-0.022800267,0.176258162,0.116616733,-0.08198946,0.250119347,-1.342818575,0.197166034
-0.943813384,-0.247519597,-0.218975335,0.013576567,0.017859548,-0.022800267,0.176258162,0.116616733,-0.08198946,0.250119347,-1.342818575,0.197166034
-0.943813384,-0.247519597,-0.218975335,0.013576567,0.017859548,-0.022800267,0.176258162,0.116616733,-0.08198946,0.250119347,-1.342818575,0.197166034
-0.943813384,-0.247519597,-0.218975335,0.013576567,0.017859548,-0.022800267,0.176258162,0.116616733,-0.08198946,0.250119347,-1.342818575,0.197166034
-0.943813384,-0.247519597,-0.218975335,0.013576567,0.017859548,-0.022800267,0.176258162,0.116616733,-0.08198946,0.250119347,-1.342818575,0.197166034
-0.943813384,-0.247519597,-0.218975335,0.013576567,0.017859548,-0.022800267,0.176258162,0.116616733,-0.08198946,0.250119347,-1.342818575,0.197166034
-0.943813384,-0.247519597,-0.218975335,0.013576567,0.017859548,-0.022800267,0.176258162,0.116616733,-0.08198946,0.250119347,-1.342818575,0.197166034
-0.943813384,-0.247519597,-0.218975335,0.013576567,0.017859548,-0.022800267,0.176258162,0.116616733,-0.08198946,0.250119347,-1.342818575,0.197166034
-0.943813384,-0.247519597,-0.218975335,0.013576567,0.017859548,-0.022800267,0.176258162,0.116616733,-0.08198946,0.250119347,-1.342818575,0.197166034
-0.943813384,-0.247519597,-0.218975335,0.013576567,0.017859548,-0.022800267,0.176258162,0.116616733,-0.08198946,0.250119347,-1.342818575,0.197166034
-0.943813384,-0.247519597,-0.218975335,0.013576567,0.017859548,-0.022800267,0.176258162,0.116616733,-0.08198946,0.250119347,-1.342818575,0.197166034
-0.943813384,-0.247519597,-0.218975335,0.013576567,0.017859548,-0.022800267,0.176258162,0.116616733,-0.08198946,0.250119347,-1.342818575,0.197166034
-0.949002504,-0.246860623,-0.196097419,-0.016863823,-0.047161043,-0.070671916,0.128846362,0.110654302,-0.057414129,0.249439275,-1.36702888,0.209934874
-0.949002504,-0.246860623,-0.196097419,-0.016863823,-0.047161043,-0.070671916,0.128846362,0.110654302,-0.057414129,0.249439275,-1.36702888,0.209934874
-0.949002504,-0.246860623,-0.196097419,-0.016863823,-0.047161043,-0.070671916,0.128846362,0.110654302,-0.057414129,0.249439275,-1.36702888,0.209934874
-0.949002504,-0.246860623,-0.196097419,-0.016863823,-0.047161043,-0.070671916,0.128846362,0.110654302,-0.057414129,0.249439275,-1.36702888,0.209934874
-0.949002504,-0.246860623,-0.196097419,-0.016863823,-0.047161043,-0.070671916,0.128846362,0.110654302,-0.057414129,0.249439275,-1.36702888,0.209934874
-0.949002504,-0.246860623,-0.196097419,-0.016863823,-0.047161043,-0.070671916,0.128846362,0.110654302,-0.057414129,0.249439275,-1.36702888,0.209934874
-0.949002504,-0.246860623,-0.196097419,-0.016863823,-0.047161043,-0.070671916,0.128846362,0.110654302,-0.057414129,0.249439275,-1.36702888,0.209934874
-0.949002504,-0.246860623,-0.196097419,-0.016863823,-0.047161043,-0.070671916,0.128846362,0.110654302,-0.057414129,0.249439275,-1.36702888,0.209934874
-0.949002504,-0.246860623,-0.196097419,-0.016863823,-0.047161043,-0.070671916,0.128846362,0.110654302,-0.057414129,0.249439275,-1.36702888,0.209934874
-0.949002504,-0.246860623,-0.196097419,-0.016863823,-0.047161043,-0.070671916,0.128846362,0.110654302,-0.057414129,0.249439275,-1.36702888,0.209934874
-0.949002504,-0.246860623,-0.196097419,-0.016863823,-0.047161043,-0.070671916,0.128846362,0.110654302,-0.057414129,0.249439275,-1.36702888,0.209934874
-0.949002504,-0.246860623,-0.196097419,-0.016863823,-0.047161043,-0.070671916,0.128846362,0.110654302,-0.057414129,0.249439275,-1.36702888,0.209934874
-0.949002504,-0.246860623,-0.196097419,-0.016863823,-0.047161043,-0.070671916,0.128846362,0.110654302,-0.057414129,0.249439275,-1.36702888,0.209934874
-0.949002504,-0.246860623,-0.196097419,-0.016863823,-0.047161043,-0.070671916,0.128846362,0.110654302,-0.057414129,0.249439275,-1.36702888,0.209934874
-0.949002504,-0.246860623,-0.196097419,-0.016863823,-0.047161043,-0.070671916,0.128846362,0.110654302,-0.057414129,0.249439275,-1.36702888,0.209934874
-0.949002504,-0.246860623,-0.196097419,-0.016863823,-0.047161043,-0.070671916,0.128846362,0.110654302,-0.057414129,0.249439275,-1.36702888,0.209934874
-0.949002504,-0.246860623,-0.196097419,-0.016863823,-0.047161043,-0.070671916,0.128846362,0.110654302,-0.057414129,0.249439275,-1.36702888,0.209934874
-0.949002504,-0.246860623,-0.196097419,-0.016863823,-0.047161043,-0.070671916,0.128846362,0.110654302,-0.057414129,0.249439275,-1.36702888,0.209934874
-0.94725132,-0.236009896,-0.216827944,0.027847826,-0.084119618,-0.048125446,-0.037636541,0.185982242,-0.081436589,0.238257692,-1.345770792,0.207795049
-0.94725132,-0.236009896,-0.216827944,0.027847826,-0.084119618,-0.048125446,-0.037636541,0.185982242,-0.081436589,0.238257692,-1.345770792,0.207795049
-0.94725132,-0.236009896,-0.216827944,0.027847826,-0.084119618,-0.048125446,-0.037636541,0.185982242,-0.081436589,0.238257692,-1.345770792,0.207795049
-0.94725132,-0.236009896,-0.216827944,0.027847826,-0.084119618,-0.048125446,-0.037636541,0.185982242,-0.081436589,0.238257692,-1.345770792,0.207795049
-0.94725132,-0.236009896,-0.216827944,0.027847826,-0.084119618,-0.048125446,-0.037636541,0.185982242,-0.081436589,0.238257692,-1.345770792,0.207795049
-0.94725132,-0.236009896,-0.216827944,0.027847826,-0.084119618,-0.048125446,-0.037636541,0.185982242,-0.081436589,0.238257692,-1.345770792,0.207795049
-0.94725132,-0.236009896,-0.216827944,0.027847826,-0.084119618,-0.048125446,-0.037636541,0.185982242,-0.081436589,0.238257692,-1.345770792,0.207795049
-0.94725132,-0.236009896,-0.216827944,0.027847826,-0.084119618,-0.048125446,-0.037636541,0.185982242,-0.081436589,0.238257692,-1.345770792,0.207795049
-0.94725132,-0.236009896,-0.216827944,0.027847826,-0.084119618,-0.048125446,-0.037636541,0.185982242,-0.081436589,0.238257692,-1.345770792,0.207795049
-0.94725132,-0.236009896,-0.216827944,0.027847826,-0.084119618,-0.048125446,-0.037636541,0.185982242,-0.081436589,0.238257692,-1.345770792,0.207795049
-0.94725132,-0.236009896,-0.216827944,0.027847826,-0.084119618,-0.048125446,-0.037636541,0.185982242,-0.081436589,0.238257692,-1.345770792,0.207795049
-0.94725132,-0.236009896,-0.216827944,0.027847826,-0.084119618,-0.048125446,-0.037636541,0.185982242,-0.081436589,0.238257692,-1.345770792,0.207795049
-0.94725132,-0.236009896,-0.216827944,0.027847826,-0.084119618,-0.048125446,-0.037636541,0.185982242,-0.081436589,0.238257692,-1.345770792,0.207795049
-0.94725132,-0.236009896,-0.216827944,0.027847826,-0.084119618,-0.048125446,-0.037636541,0.185982242,-0.081436589,0.238257692,-1.345770792,0.207795049
-0.94725132,-0.236009896,-0.216827944,0.027847826,-0.084119618,-0.048125446,-0.037636541,0.185982242,-0.081436589,0.238257692,-1.345770792,0.207795049
-0.94725132,-0.236009896,-0.216827944,0.027847826,-0.084119618,-0.048125446,-0.037636541,0.185982242,-0.081436589,0.238257692,-1.345770792,0.207795049
-0.94725132,-0.236009896,-0.216827944,0.027847826,-0.084119618,-0.048125446,-0.037636541,0.185982242,-0.081436589,0.238257692,-1.345770792,0.207795049
-0.94725132,-0.236009896,-0.216827944,0.027847826,-0.084119618,-0.048125446,-0.037636541,0.185982242,-0.081436589,0.238257692,-1.345770792,0.207795049
-0.94725132,-0.236009896,-0.216827944,0.027847826,-0.084119618,-0.048125446,-0.037636541,0.185982242,-0.081436589,0.238257692,-1.345770792,0.207795049
-0.94725132,-0.236009896,-0.216827944,0.027847826,-0.084119618,-0.048125446,-0.037636541,0.185982242,-0.081436589,0.238257692,-1.345770792,0.207795049
-0.94725132,-0.236009896,-0.216827944,0.027847826,-0.084119618,-0.048125446,-0.037636541,0.185982242,-0.081436589,0.238257692,-1.345770792,0.207795049
-0.94725132,-0.236009896,-0.216827944,0.027847826,-0.084119618,-0.048125446,-0.037636541,0.185982242,-0.081436589,0.238257692,-1.345770792,0.207795049
-0.94725132,-0.236009896,-0.216827944,0.027847826,-0.084119618,-0.048125446,-0.037636541,0.185982242,-0.081436589,0.238257692,-1.345770792,0.207795049
-0.661116838,-0.744377851,-0.09394677,-0.230697989,-0.31914413,0.188825369,0.09371987,1.331611156,-3.530012846,0.839602701,-1.429638291,0.696021334
-0.661116838,-0.744377851,-0.09394677,-0.230697989,-0.31914413,0.188825369,0.09371987,1.331611156,-3.530012846,0.839602701,-1.429638291,0.696021334
-0.661116838,-0.744377851,-0.09394677,-0.230697989,-0.31914413,0.188825369,0.09371987,1.331611156,-3.530012846,0.839602701,-1.429638291,0.696021334
-0.543045163,-0.829595804,-0.129896119,-0.31579566,-0.367044091,0.149869621,-0.571082175,0.876463532,-3.691628456,0.97838341,-1.336008392,0.635378318
-0.543045163,-0.829595804,-0.129896119,-0.31579566,-0.367044091,0.149869621,-0.571082175,0.876463532,-3.691628456,0.97838341,-1.336008392,0.635378318
-0.543045163,-0.829595804,-0.129896119,-0.31579566,-0.367044091,0.149869621,-0.571082175,0.876463532,-3.691628456,0.97838341,-1.336008392,0.635378318
-0.401554018,-0.901099443,-0.163628846,-0.336788118,-0.333031237,0.250161171,-0.670705318,0.099002339,-4.279646873,1.122298355,-1.183850634,0.484007588
-0.401554018,-0.901099443,-0.163628846,-0.336788118,-0.333031237,0.250161171,-0.670705318,0.099002339,-4.279646873,1.122298355,-1.183850634,0.484007588
-0.401554018,-0.901099443,-0.163628846,-0.336788118,-0.333031237,0.250161171,-0.670705318,0.099002339,-4.279646873,1.122298355,-1.183850634,0.484007588
-0.401554018,-0.901099443,-0.163628846,-0.336788118,-0.333031237,0.250161171,-0.670705318,0.099002339,-4.279646873,1.122298355,-1.183850634,0.484007588
-0.401554018,-0.901099443,-0.163628846,-0.336788118,-0.333031237,0.250161171,-0.670705318,0.099002339,-4.279646873,1.122298355,-1.183850634,0.484007588
-0.401554018,-0.901099443,-0.163628846,-0.336788118,-0.333031237,0.250161171,-0.670705318,0.099002339,-4.279646873,1.122298355,-1.183850634,0.484007588
-0.401554018,-0.901099443,-0.163628846,-0.336788118,-0.333031237,0.250161171,-0.670705318,0.099002339,-4.279646873,1.122298355,-1.183850634,0.484007588
-0.234237596,-0.954762936,-0.183195606,-0.349884033,-0.321787179,0.437345743,-0.529849648,-0.432002962,-4.80385685,1.268861626,-0.907069996,0.179668065
-0.234237596,-0.954762936,-0.183195606,-0.349884033,-0.321787179,0.437345743,-0.529849648,-0.432002962,-4.80385685,1.268861626,-0.907069996,0.179668065
-0.234237596,-0.954762936,-0.183195606,-0.349884033,-0.321787179,0.437345743,-0.529849648,-0.432002962,-4.80385685,1.268861626,-0.907069996,0.179668065
-0.234237596,-0.954762936,-0.183195606,-0.349884033,-0.321787179,0.437345743,-0.529849648,-0.432002962,-4.80385685,1.268861626,-0.907069996,0.179668065
-0.234237596,-0.954762936,-0.183195606,-0.349884033,-0.321787179,0.437345743,-0.529849648,-0.432002962,-4.80385685,1.268861626,-0.907069996,0.179668065
-0.234237596,-0.954762936,-0.183195606,-0.349884033,-0.321787179,0.437345743,-0.529849648,-0.432002962,-4.80385685,1.268861626,-0.907069996,0.179668065
-0.035993282,-0.978396833,-0.203578204,-0.203737468,-0.158794463,0.613764584,-0.433036089,-0.739821911,-5.636888504,1.362558971,-0.174994762,-0.599356686
-0.035993282,-0.978396833,-0.203578204,-0.203737468,-0.158794463,0.613764584,-0.433036089,-0.739821911,-5.636888504,1.362558971,-0.174994762,-0.599356686
-0.035993282,-0.978396833,-0.203578204,-0.203737468,-0.158794463,0.613764584,-0.433036089,-0.739821911,-5.636888504,1.362558971,-0.174994762,-0.599356686
-0.035993282,-0.978396833,-0.203578204,-0.203737468,-0.158794463,0.613764584,-0.433036089,-0.739821911,-5.636888504,1.362558971,-0.174994762,-0.599356686
-0.035993282,-0.978396833,-0.203578204,-0.203737468,-0.158794463,0.613764584,-0.433036089,-0.739821911,-5.636888504,1.362558971,-0.174994762,-0.599356686
-0.035993282,-0.978396833,-0.203578204,-0.203737468,-0.158794463,0.613764584,-0.433036089,-0.739821911,-5.636888504,1.362558971,-0.174994762,-0.599356686
-0.035993282,-0.978396833,-0.203578204,-0.203737468,-0.158794463,0.613764584,-0.433036089,-0.739821911,-5.636888504,1.362558971,-0.174994762,-0.599356686
-0.035993282,-0.978396833,-0.203578204,-0.203737468,-0.158794463,0.613764584,-0.433036089,-0.739821911,-5.636888504,1.362558971,-0.174994762,-0.599356686
-0.035993282,-0.978396833,-0.203578204,-0.203737468,-0.158794463,0.613764584,-0.433036089,-0.739821911,-5.636888504,1.362558971,-0.174994762,-0.599356686
-0.035993282,-0.978396833,-0.203578204,-0.203737468,-0.158794463,0.613764584,-0.433036089,-0.739821911,-5.636888504,1.362558971,-0.174994762,-0.599356686
-0.035993282,-0.978396833,-0.203578204,-0.203737468,-0.158794463,0.613764584,-0.433036089,-0.739821911,-5.636888504,1.362558971,-0.174994762,-0.599356686
-0.035993282,-0.978396833,-0.203578204,-0.203737468,-0.158794463,0.613764584,-0.433036089,-0.739821911,-5.636888504,1.362558971,-0.174994762,-0.599356686
0.178115025,-0.961034596,-0.211394802,-0.184065908,-0.206064403,0.474868238,0.092361696,-1.368806481,-5.730922222,1.290720933,0.700165024,-1.538250423
0.178115025,-0.961034596,-0.211394802,-0.184065908,-0.206064403,0.474868238,0.092361696,-1.368806481,-5.730922222,1.290720933,0.700165024,-1.538250423
0.178115025,-0.961034596,-0.211394802,-0.184065908,-0.206064403,0.474868238,0.092361696,-1.368806481,-5.730922222,1.290720933,0.700165024,-1.538250423
0.548227787,-0.798440576,-0.248875454,-0.385325134,0.102273941,0.41345638,1.201994061,-2.643771648,-5.404677868,0.924700685,1.144651154,-2.208679418
0.548227787,-0.798440576,-0.248875454,-0.385325134,0.102273941,0.41345638,1.201994061,-2.643771648,-5.404677868,0.924700685,1.144651154,-2.208679418
0.548227787,-0.798440576,-0.248875454,-0.385325134,0.102273941,0.41345638,1.201994061,-2.643771648,-5.404677868,0.924700685,1.144651154,-2.208679418
0.66330725,-0.691136837,-0.286972791,-0.544350207,0.119024396,0.122512937,1.030588388,-3.048410416,-4.396494865,0.763060875,1.162472925,-2.387157289
0.66330725,-0.691136837,-0.286972791,-0.544350207,0.119024396,0.122512937,1.030588388,-3.048410416,-4.396494865,0.763060875,1.162472925,-2.387157289
0.66330725,-0.691136837,-0.286972791,-0.544350207,0.119024396,0.122512937,1.030588388,-3.048410416,-4.396494865,0.763060875,1.162472925,-2.387157289
0.66330725,-0.691136837,-0.286972791,-0.544350207,0.119024396,0.122512937,1.030588388,-3.048410416,-4.396494865,0.763060875,1.162472925,-2.387157289
0.66330725,-0.691136837,-0.286972791,-0.544350207,0.119024396,0.122512937,1.030588388,-3.048410416,-4.396494865,0.763060875,1.162472925,-2.387157289
0.66330725,-0.691136837,-0.286972791,-0.544350207,0.119024396,0.122512937,1.030588388,-3.048410416,-4.396494865,0.763060875,1.162472925,-2.387157289
0.66330725,-0.691136837,-0.286972791,-0.544350207,0.119024396,0.122512937,1.030588388,-3.048410416,-4.396494865,0.763060875,1.162472925,-2.387157289
0.66330725,-0.691136837,-0.286972791,-0.544350207,0.119024396,0.122512937,1.030588388,-3.048410416,-4.396494865,0.763060875,1.162472925,-2.387157289
0.66330725,-0.691136837,-0.286972791,-0.544350207,0.119024396,0.122512937,1.030588388,-3.048410416,-4.396494865,0.763060875,1.162472925,-2.387157289
0.7176947,-0.601644218,-0.350625902,-0.531355083,0.258535683,0.06063199,0.783410668,-3.2418015,-2.98069787,0.64555799,1.116354929,-2.513731806
0.7176947,-0.601644218,-0.350625902,-0.531355083,0.258535683,0.06063199,0.783410668,-3.2418015,-2.98069787,0.64555799,1.116354929,-2.513731806
0.7176947,-0.601644218,-0.350625902,-0.531355083,0.258535683,0.06063199,0.783410668,-3.2418015,-2.98069787,0.64555799,1.116354929,-2.513731806
0.7176947,-0.601644218,-0.350625902,-0.531355083,0.258535683,0.06063199,0.783410668,-3.2418015,-2.98069787,0.64555799,1.116354929,-2.513731806
0.7176947,-0.601644218,-0.350625902,-0.531355083,0.258535683,0.06063199,0.783410668,-3.2418015,-2.98069787,0.64555799,1.116354929,-2.513731806
0.7176947,-0.601644218,-0.350625902,-0.531355083,0.258535683,0.06063199,0.783410668,-3.2418015,-2.98069787,0.64555799,1.116354929,-2.513731806
0.7176947,-0.601644218,-0.350625902,-0.531355083,0.258535683,0.06063199,0.783410668,-3.2418015,-2.98069787,0.64555799,1.116354929,-2.513731806
0.7176947,-0.601644218,-0.350625902,-0.531355083,0.258535683,0.06063199,0.783410668,-3.2418015,-2.98069787,0.64555799,1.116354929,-2.513731806
0.7176947,-0.601644218,-0.350625902,-0.531355083,0.258535683,0.06063199,0.783410668,-3.2418015,-2.98069787,0.64555799,1.116354929,-2.513731806
0.722155631,-0.541948318,-0.429864228,-0.57681632,0.217714846,-0.002906144,0.120511718,-2.683668375,-1.742586136,0.572753689,1.033875657,-2.579736152
0.722155631,-0.541948318,-0.429864228,-0.57681632,0.217714846,-0.002906144,0.120511718,-2.683668375,-1.742586136,0.572753689,1.033875657,-2.579736152
0.722155631,-0.541948318,-0.429864228,-0.57681632,0.217714846,-0.002906144,0.120511718,-2.683668375,-1.742586136,0.572753689,1.033875657,-2.579736152
0.722155631,-0.541948318,-0.429864228,-0.57681632,0.217714846,-0.002906144,0.120511718,-2.683668375,-1.742586136,0.572753689,1.033875657,-2.579736152
0.722155631,-0.541948318,-0.429864228,-0.57681632,0.217714846,-0.002906144,0.120511718,-2.683668375,-1.742586136,0.572753689,1.033875657,-2.579736152
0.722155631,-0.541948318,-0.429864228,-0.57681632,0.217714846,-0.002906144,0.120511718,-2.683668375,-1.742586136,0.572753689,1.033875657,-2.579736152
0.722155631,-0.541948318,-0.429864228,-0.57681632,0.217714846,-0.002906144,0.120511718,-2.683668375,-1.742586136,0.572753689,1.033875657,-2.579736152
0.722155631,-0.541948318,-0.429864228,-0.57681632,0.217714846,-0.002906144,0.120511718,-2.683668375,-1.742586136,0.572753689,1.033875657,-2.579736152
0.722155631,-0.541948318,-0.429864228,-0.57681632,0.217714846,-0.002906144,0.120511718,-2.683668375,-1.742586136,0.572753689,1.033875657,-2.579736152
0.722155631,-0.541948318,-0.429864228,-0.57681632,0.217714846,-0.002906144,0.120511718,-2.683668375,-1.742586136,0.572753689,1.033875657,-2.579736152
0.711322546,-0.508158684,-0.485587329,-0.337315321,0.213084817,0.060446262,0.734700322,-2.087210417,-1.261358261,0.533045492,0.971806939,-2.639230842
0.711322546,-0.508158684,-0.485587329,-0.337315321,0.213084817,0.060446262,0.734700322,-2.087210417,-1.261358261,0.533045492,0.971806939,-2.639230842
0.711322546,-0.508158684,-0.485587329,-0.337315321,0.213084817,0.060446262,0.734700322,-2.087210417,-1.261358261,0.533045492,0.971806939,-2.639230842
0.711322546,-0.508158684,-0.485587329,-0.337315321,0.213084817,0.060446262,0.734700322,-2.087210417,-1.261358261,0.533045492,0.971806939,-2.639230842
0.711322546,-0.508158684,-0.485587329,-0.337315321,0.213084817,0.060446262,0.734700322,-2.087210417,-1.261358261,0.533045492,0.971806939,-2.639230842
0.696236014,-0.492611438,-0.522100925,-0.409768283,0.097943366,-0.117365003,0.750051439,-1.165515423,-0.656970322,0.515088009,0.927365202,-2.687702176
0.696236014,-0.492611438,-0.522100925,-0.409768283,0.097943366,-0.117365003,0.750051439,-1.165515423,-0.656970322,0.515088009,0.927365202,-2.687702176
0.696236014,-0.492611438,-0.522100925,-0.409768283,0.097943366,-0.117365003,0.750051439,-1.165515423,-0.656970322,0.515088009,0.927365202,-2.687702176
0.704852462,-0.509698629,-0.493346095,-0.407703519,0.478342295,-0.188920736,2.505495548,0.411130846,-0.817165017,0.53483445,0.960118568,-2.782611175
0.704852462,-0.509698629,-0.493346095,-0.407703519,0.478342295,-0.188920736,2.505495548,0.411130846,-0.817165017,0.53483445,0.960118568,-2.782611175
0.704852462,-0.509698629,-0.493346095,-0.407703519,0.478342295,-0.188920736,2.505495548,0.411130846,-0.817165017,0.53483445,0.960118568,-2.782611175
0.718172312,-0.523204923,-0.458786637,0.096478462,-0.047503769,0.016189635,1.060526133,-0.411759794,-0.502246976,0.550607378,1.002316941,-2.852835852
0.718172312,-0.523204923,-0.458786637,0.096478462,-0.047503769,0.016189635,1.060526133,-0.411759794,-0.502246976,0.550607378,1.002316941,-2.852835852
0.718172312,-0.523204923,-0.458786637,0.096478462,-0.047503769,0.016189635,1.060526133,-0.411759794,-0.502246976,0.550607378,1.002316941,-2.852835852
0.709757388,-0.496480137,-0.499751866,-0.231028914,-0.198435128,0.155451953,-2.50485754,0.168662786,0.628650069,0.519539139,0.957312968,-2.818919121
0.709757388,-0.496480137,-0.499751866,-0.231028914,-0.198435128,0.155451953,-2.50485754,0.168662786,0.628650069,0.519539139,0.957312968,-2.818919121
0.709757388,-0.496480137,-0.499751866,-0.231028914,-0.198435128,0.155451953,-2.50485754,0.168662786,0.628650069,0.519539139,0.957312968,-2.818919121
0.709757388,-0.496480137,-0.499751866,-0.231028914,-0.198435128,0.155451953,-2.50485754,0.168662786,0.628650069,0.519539139,0.957312968,-2.818919121
0.709757388,-0.496480137,-0.499751866,-0.231028914,-0.198435128,0.155451953,-2.50485754,0.168662786,0.628650069,0.519539139,0.957312968,-2.818919121
0.709757388,-0.496480137,-0.499751866,-0.231028914,-0.198435128,0.155451953,-2.50485754,0.168662786,0.628650069,0.519539139,0.957312968,-2.818919121
0.709757388,-0.496480137,-0.499751866,-0.231028914,-0.198435128,0.155451953,-2.50485754,0.168662786,0.628650069,0.519539139,0.957312968,-2.818919121
0.709757388,-0.496480137,-0.499751866,-0.231028914,-0.198435128,0.155451953,-2.50485754,0.168662786,0.628650069,0.519539139,0.957312968,-2.818919121
0.709757388,-0.496480137,-0.499751866,-0.231028914,-0.198435128,0.155451953,-2.50485754,0.168662786,0.628650069,0.519539139,0.957312968,-2.818919121
0.702785075,-0.46058777,-0.542173624,-0.165249169,-0.123228312,-0.093034983,-2.746652126,0.360058486,0.805148244,0.478657272,0.913698966,-2.700276853
0.702785075,-0.46058777,-0.542173624,-0.165249169,-0.123228312,-0.093034983,-2.746652126,0.360058486,0.805148244,0.478657272,0.913698966,-2.700276853
0.702785075,-0.46058777,-0.542173624,-0.165249169,-0.123228312,-0.093034983,-2.746652126,0.360058486,0.805148244,0.478657272,0.913698966,-2.700276853
0.702785075,-0.46058777,-0.542173624,-0.165249169,-0.123228312,-0.093034983,-2.746652126,0.360058486,0.805148244,0.478657272,0.913698966,-2.700276853
0.704859316,-0.375745267,-0.601655126,-0.033091784,-0.152086377,0.039276779,-2.689947844,0.912101388,0.759715974,0.385200844,0.864226487,-2.454867939
0.704859316,-0.375745267,-0.601655126,-0.033091784,-0.152086377,0.039276779,-2.689947844,0.912101388,0.759715974,0.385200844,0.864226487,-2.454867939
0.704859316,-0.375745267,-0.601655126,-0.033091784,-0.152086377,0.039276779,-2.689947844,0.912101388,0.759715974,0.385200844,0.864226487,-2.454867939
0.734100223,-0.314502656,-0.601818085,0.233290315,-0.014964491,0.049296558,0.168418482,-0.883625865,-0.549996078,0.31993267,0.884096036,-2.332708136
0.734100223,-0.314502656,-0.601818085,0.233290315,-0.014964491,0.049296558,0.168418482,-0.883625865,-0.549996078,0.31993267,0.884096036,-2.332708136
0.734100223,-0.314502656,-0.601818085,0.233290315,-0.014964491,0.049296558,0.168418482,-0.883625865,-0.549996078,0.31993267,0.884096036,-2.332708136
0.734100223,-0.314502656,-0.601818085,0.233290315,-0.014964491,0.049296558,0.168418482,-0.883625865,-0.549996078,0.31993267,0.884096036,-2.332708136
0.734100223,-0.314502656,-0.601818085,0.233290315,-0.014964491,0.049296558,0.168418482,-0.883625865,-0.549996078,0.31993267,0.884096036,-2.332708136
0.734100223,-0.314502656,-0.601818085,0.233290315,-0.014964491,0.049296558,0.168418482,-0.883625865,-0.549996078,0.31993267,0.884096036,-2.332708136
0.718360662,-0.331231266,-0.611754775,0.01978147,0.300287277,0.058363259,2.846729755,-0.880154252,-0.386379987,0.337608193,0.865375058,-2.391052037
0.718360662,-0.331231266,-0.611754775,0.01978147,0.300287277,0.058363259,2.846729755,-0.880154252,-0.386379987,0.337608193,0.865375058,-2.391052037
0.718360662,-0.331231266,-0.611754775,0.01978147,0.300287277,0.058363259,2.846729755,-0.880154252,-0.386379987,0.337608193,0.865375058,-2.391052037
0.718360662,-0.331231266,-0.611754775,0.01978147,0.300287277,0.058363259,2.846729755,-0.880154252,-0.386379987,0.337608193,0.865375058,-2.391052037
0.718360662,-0.331231266,-0.611754775,0.01978147,0.300287277,0.058363259,2.846729755,-0.880154252,-0.386379987,0.337608193,0.865375058,-2.391052037
0.705261767,-0.401258528,-0.584463537,-0.00535804,-0.016266763,0.133336425,3.314029455,-0.832580209,-0.633613944,0.412890411,0.878787691,-2.517256404
0.705261767,-0.401258528,-0.584463537,-0.00535804,-0.016266763,0.133336425,3.314029455,-0.832580209,-0.633613944,0.412890411,0.878787691,-2.517256404
0.705261767,-0.401258528,-0.584463537,-0.00535804,-0.016266763,0.133336425,3.314029455,-0.832580209,-0.633613944,0.412890411,0.878787691,-2.517256404
0.705261767,-0.401258528,-0.584463537,-0.00535804,-0.016266763,0.133336425,3.314029455,-0.832580209,-0.633613944,0.412890411,0.878787691,-2.517256404
0.705261767,-0.401258528,-0.584463537,-0.00535804,-0.016266763,0.133336425,3.314029455,-0.832580209,-0.633613944,0.412890411,0.878787691,-2.517256404
0.705261767,-0.401258528,-0.584463537,-0.00535804,-0.016266763,0.133336425,3.314029455,-0.832580209,-0.633613944,0.412890411,0.878787691,-2.517256404
0.702675581,-0.434271097,-0.563609481,-0.283045709,-0.148918539,0.11942482,0.478949666,0.131547511,-0.288119793,0.449228917,0.894781942,-2.601291465
0.702675581,-0.434271097,-0.563609481,-0.283045709,-0.148918539,0.11942482,0.478949666,0.131547511,-0.288119793,0.449228917,0.894781942,-2.601291465
0.702675581,-0.434271097,-0.563609481,-0.283045709,-0.148918539,0.11942482,0.478949666,0.131547511,-0.288119793,0.449228917,0.894781942,-2.601291465
0.702675581,-0.434271097,-0.563609481,-0.283045709,-0.148918539,0.11942482,0.478949666,0.131547511,-0.288119793,0.449228917,0.894781942,-2.601291465
0.702675581,-0.434271097,-0.563609481,-0.283045709,-0.148918539,0.11942482,0.478949666,0.131547511,-0.288119793,0.449228917,0.894781942,-2.601291465
0.702675581,-0.434271097,-0.563609481,-0.283045709,-0.148918539,0.11942482,0.478949666,0.131547511,-0.288119793,0.449228917,0.894781942,-2.601291465
0.702675581,-0.434271097,-0.563609481,-0.283045709,-0.148918539,0.11942482,0.478949666,0.131547511,-0.288119793,0.449228917,0.894781942,-2.601291465
0.702675581,-0.434271097,-0.563609481,-0.283045709,-0.148918539,0.11942482,0.478949666,0.131547511,-0.288119793,0.449228917,0.894781942,-2.601291465
0.708267331,-0.418455452,-0.568552911,-0.288942695,-0.255417228,0.029901087,-1.934872031,0.54540205,0.630768895,0.431744052,0.894388279,-2.561291708
0.708267331,-0.418455452,-0.568552911,-0.288942695,-0.255417228,0.029901087,-1.934872031,0.54540205,0.630768895,0.431744052,0.894388279,-2.561291708
0.708267331,-0.418455452,-0.568552911,-0.288942695,-0.255417228,0.029901087,-1.934872031,0.54540205,0.630768895,0.431744052,0.894388279,-2.561291708
0.708267331,-0.418455452,-0.568552911,-0.288942695,-0.255417228,0.029901087,-1.934872031,0.54540205,0.630768895,0.431744052,0.894388279,-2.561291708
0.708267331,-0.418455452,-0.568552911,-0.288942695,-0.255417228,0.029901087,-1.934872031,0.54540205,0.630768895,0.431744052,0.894388279,-2.561291708
0.710521042,-0.392131627,-0.58428812,-0.292218804,-0.039965481,0.072232366,-2.609404564,0.965720475,1.232670903,0.40294766,0.882582536,-2.45869421
0.710521042,-0.392131627,-0.58428812,-0.292218804,-0.039965481,0.072232366,-2.609404564,0.965720475,1.232670903,0.40294766,0.882582536,-2.45869421
0.710521042,-0.392131627,-0.58428812,-0.292218804,-0.039965481,0.072232366,-2.609404564,0.965720475,1.232670903,0.40294766,0.882582536,-2.45869421
0.73421061,-0.32375738,-0.596754551,0.077371418,0.018750578,-0.017184258,-2.472794294,0.580623329,0.967426479,0.329698091,0.888308803,-2.200118966
0.73421061,-0.32375738,-0.596754551,0.077371418,0.018750578,-0.017184258,-2.472794294,0.580623329,0.967426479,0.329698091,0.888308803,-2.200118966
0.73421061,-0.32375738,-0.596754551,0.077371418,0.018750578,-0.017184258,-2.472794294,0.580623329,0.967426479,0.329698091,0.888308803,-2.200118966
0.73421061,-0.32375738,-0.596754551,0.077371418,0.018750578,-0.017184258,-2.472794294,0.580623329,0.967426479,0.329698091,0.888308803,-2.200118966
0.73421061,-0.32375738,-0.596754551,0.077371418,0.018750578,-0.017184258,-2.472794294,0.580623329,0.967426479,0.329698091,0.888308803,-2.200118966
0.730956197,-0.332027376,-0.596205413,-0.078386009,0.276974827,0.192197025,0.262717843,0.3720164,1.119419575,0.338452081,0.886584457,-2.146838987
0.730956197,-0.332027376,-0.596205413,-0.078386009,0.276974827,0.192197025,0.262717843,0.3720164,1.119419575,0.338452081,0.886584457,-2.146838987
0.730956197,-0.332027376,-0.596205413,-0.078386009,0.276974827,0.192197025,0.262717843,0.3720164,1.119419575,0.338452081,0.886584457,-2.146838987
0.730956197,-0.332027376,-0.596205413,-0.078386009,0.276974827,0.192197025,0.262717843,0.3720164,1.119419575,0.338452081,0.886584457,-2.146838987
0.730956197,-0.332027376,-0.596205413,-0.078386009,0.276974827,0.192197025,0.262717843,0.3720164,1.119419575,0.338452081,0.886584457,-2.146838987
0.730956197,-0.332027376,-0.596205413,-0.078386009,0.276974827,0.192197025,0.262717843,0.3720164,1.119419575,0.338452081,0.886584457,-2.146838987
0.730956197,-0.332027376,-0.596205413,-0.078386009,0.276974827,0.192197025,0.262717843,0.3720164,1.119419575,0.338452081,0.886584457,-2.146838987
0.730956197,-0.332027376,-0.596205413,-0.078386009,0.276974827,0.192197025,0.262717843,0.3720164,1.119419575,0.338452081,0.886584457,-2.146838987
0.730956197,-0.332027376,-0.596205413,-0.078386009,0.276974827,0.192197025,0.262717843,0.3720164,1.119419575,0.338452081,0.886584457,-2.146838987
0.730956197,-0.332027376,-0.596205413,-0.078386009,0.276974827,0.192197025,0.262717843,0.3720164,1.119419575,0.338452081,0.886584457,-2.146838987
0.730956197,-0.332027376,-0.596205413,-0.078386009,0.276974827,0.192197025,0.262717843,0.3720164,1.119419575,0.338452081,0.886584457,-2.146838987
0.730956197,-0.332027376,-0.596205413,-0.078386009,0.276974827,0.192197025,0.262717843,0.3720164,1.119419575,0.338452081,0.886584457,-2.146838987
0.730956197,-0.332027376,-0.596205413,-0.078386009,0.276974827,0.192197025,0.262717843,0.3720164,1.119419575,0.338452081,0.886584457,-2.146838987
0.725436509,-0.35828194,-0.587687016,-0.134801686,-0.075997233,0.05548954,-1.713653803,0.869424462,1.468342423,0.366427008,0.889918068,-2.088608586
0.725436509,-0.35828194,-0.587687016,-0.134801686,-0.075997233,0.05548954,-1.713653803,0.869424462,1.468342423,0.366427008,0.889918068,-2.088608586
0.725436509,-0.35828194,-0.587687016,-0.134801686,-0.075997233,0.05548954,-1.713653803,0.869424462,1.468342423,0.366427008,0.889918068,-2.088608586
0.725436509,-0.35828194,-0.587687016,-0.134801686,-0.075997233,0.05548954,-1.713653803,0.869424462,1.468342423,0.366427008,0.889918068,-2.088608586
0.725436509,-0.35828194,-0.587687016,-0.134801686,-0.075997233,0.05548954,-1.713653803,0.869424462,1.468342423,0.366427008,0.889918068,-2.088608586
0.725436509,-0.35828194,-0.587687016,-0.134801686,-0.075997233,0.05548954,-1.713653803,0.869424462,1.468342423,0.366427008,0.889918068,-2.088608586
0.725436509,-0.35828194,-0.587687016,-0.134801686,-0.075997233,0.05548954,-1.713653803,0.869424462,1.468342423,0.366427008,0.889918068,-2.088608586
0.725436509,-0.35828194,-0.587687016,-0.134801686,-0.075997233,0.05548954,-1.713653803,0.869424462,1.468342423,0.366427008,0.889918068,-2.088608586
0.725436509,-0.35828194,-0.587687016,-0.134801686,-0.075997233,0.05548954,-1.713653803,0.869424462,1.468342423,0.366427008,0.889918068,-2.088608586
0.725436509,-0.35828194,-0.587687016,-0.134801686,-0.075997233,0.05548954,-1.713653803,0.869424462,1.468342423,0.366427008,0.889918068,-2.088608586
0.725436509,-0.35828194,-0.587687016,-0.134801686,-0.075997233,0.05548954,-1.713653803,0.869424462,1.468342423,0.366427008,0.889918068,-2.088608586
0.725436509,-0.35828194,-0.587687016,-0.134801686,-0.075997233,0.05548954,-1.713653803,0.869424462,1.468342423,0.366427008,0.889918068,-2.088608586
0.725436509,-0.35828194,-0.587687016,-0.134801686,-0.075997233,0.05548954,-1.713653803,0.869424462,1.468342423,0.366427008,0.889918068,-2.088608586
0.725436509,-0.35828194,-0.587687016,-0.134801686,-0.075997233,0.05548954,-1.713653803,0.869424462,1.468342423,0.366427008,0.889918068,-2.088608586
0.725436509,-0.35828194,-0.587687016,-0.134801686,-0.075997233,0.05548954,-1.713653803,0.869424462,1.468342423,0.366427008,0.889918068,-2.088608586
0.713757038,-0.359514326,-0.601082683,-0.125441551,0.060946852,0.170295119,-2.381948709,0.372988939,2.338487387,0.367747353,0.87088369,-1.966789572
0.713757038,-0.359514326,-0.601082683,-0.125441551,0.060946852,0.170295119,-2.381948709,0.372988939,2.338487387,0.367747353,0.87088369,-1.966789572
0.713757038,-0.359514326,-0.601082683,-0.125441551,0.060946852,0.170295119,-2.381948709,0.372988939,2.338487387,0.367747353,0.87088369,-1.966789572
0.713757038,-0.359514326,-0.601082683,-0.125441551,0.060946852,0.170295119,-2.381948709,0.372988939,2.338487387,0.367747353,0.87088369,-1.966789572
0.713757038,-0.359514326,-0.601082683,-0.125441551,0.060946852,0.170295119,-2.381948709,0.372988939,2.338487387,0.367747353,0.87088369,-1.966789572
0.713757038,-0.359514326,-0.601082683,-0.125441551,0.060946852,0.170295119,-2.381948709,0.372988939,2.338487387,0.367747353,0.87088369,-1.966789572
0.713757038,-0.359514326,-0.601082683,-0.125441551,0.060946852,0.170295119,-2.381948709,0.372988939,2.338487387,0.367747353,0.87088369,-1.966789572
0.713757038,-0.359514326,-0.601082683,-0.125441551,0.060946852,0.170295119,-2.381948709,0.372988939,2.338487387,0.367747353,0.87088369,-1.966789572
0.713757038,-0.359514326,-0.601082683,-0.125441551,0.060946852,0.170295119,-2.381948709,0.372988939,2.338487387,0.367747353,0.87088369,-1.966789572
0.681746185,-0.379385203,-0.625531018,-0.223801494,0.145942241,0.243663311,-2.057431459,0.362301707,3.069569349,0.389131719,0.828373426,-1.815962622
0.681746185,-0.379385203,-0.625531018,-0.223801494,0.145942241,0.243663311,-2.057431459,0.362301707,3.069569349,0.389131719,0.828373426,-1.815962622
0.681746185,-0.379385203,-0.625531018,-0.223801494,0.145942241,0.243663311,-2.057431459,0.362301707,3.069569349,0.389131719,0.828373426,-1.815962622
0.681746185,-0.379385203,-0.625531018,-0.223801494,0.145942241,0.243663311,-2.057431459,0.362301707,3.069569349,0.389131719,0.828373426,-1.815962622
0.681746185,-0.379385203,-0.625531018,-0.223801494,0.145942241,0.243663311,-2.057431459,0.362301707,3.069569349,0.389131719,0.828373426,-1.815962622
0.681746185,-0.379385203,-0.625531018,-0.223801494,0.145942241,0.243663311,-2.057431459,0.362301707,3.069569349,0.389131719,0.828373426,-1.815962622
0.681746185,-0.379385203,-0.625531018,-0.223801494,0.145942241,0.243663311,-2.057431459,0.362301707,3.069569349,0.389131719,0.828373426,-1.815962622
0.681746185,-0.379385203,-0.625531018,-0.223801494,0.145942241,0.243663311,-2.057431459,0.362301707,3.069569349,0.389131719,0.828373426,-1.815962622
0.681746185,-0.379385203,-0.625531018,-0.223801494,0.145942241,0.243663311,-2.057431459,0.362301707,3.069569349,0.389131719,0.828373426,-1.815962622
0.681746185,-0.379385203,-0.625531018,-0.223801494,0.145942241,0.243663311,-2.057431459,0.362301707,3.069569349,0.389131719,0.828373426,-1.815962622
0.681746185,-0.379385203,-0.625531018,-0.223801494,0.145942241,0.243663311,-2.057431459,0.362301707,3.069569349,0.389131719,0.828373426,-1.815962622
0.681746185,-0.379385203,-0.625531018,-0.223801494,0.145942241,0.243663311,-2.057431459,0.362301707,3.069569349,0.389131719,0.828373426,-1.815962622
0.634847999,-0.401088536,-0.660375655,-0.083138049,0.024365723,0.181156933,-2.769914865,-0.297519296,3.351907253,0.412704855,0.765691664,-1.642287571
0.634847999,-0.401088536,-0.660375655,-0.083138049,0.024365723,0.181156933,-2.769914865,-0.297519296,3.351907253,0.412704855,0.765691664,-1.642287571
0.634847999,-0.401088536,-0.660375655,-0.083138049,0.024365723,0.181156933,-2.769914865,-0.297519296,3.351907253,0.412704855,0.765691664,-1.642287571
0.634847999,-0.401088536,-0.660375655,-0.083138049,0.024365723,0.181156933,-2.769914865,-0.297519296,3.351907253,0.412704855,0.765691664,-1.642287571
0.634847999,-0.401088536,-0.660375655,-0.083138049,0.024365723,0.181156933,-2.769914865,-0.297519296,3.351907253,0.412704855,0.765691664,-1.642287571
0.634847999,-0.401088536,-0.660375655,-0.083138049,0.024365723,0.181156933,-2.769914865,-0.297519296,3.351907253,0.412704855,0.765691664,-1.642287571
0.634847999,-0.401088536,-0.660375655,-0.083138049,0.024365723,0.181156933,-2.769914865,-0.297519296,3.351907253,0.412704855,0.765691664,-1.642287571
0.634847999,-0.401088536,-0.660375655,-0.083138049,0.024365723,0.181156933,-2.769914865,-0.297519296,3.351907253,0.412704855,0.765691664,-1.642287571
0.634847999,-0.401088536,-0.660375655,-0.083138049,0.024365723,0.181156933,-2.769914865,-0.297519296,3.351907253,0.412704855,0.765691664,-1.642287571
0.634847999,-0.401088536,-0.660375655,-0.083138049,0.024365723,0.181156933,-2.769914865,-0.297519296,3.351907253,0.412704855,0.765691664,-1.642287571
0.634847999,-0.401088536,-0.660375655,-0.083138049,0.024365723,0.181156933,-2.769914865,-0.297519296,3.351907253,0.412704855,0.765691664,-1.642287571
0.634847999,-0.401088536,-0.660375655,-0.083138049,0.024365723,0.181156933,-2.769914865,-0.297519296,3.351907253,0.412704855,0.765691664,-1.642287571
0.634847999,-0.401088536,-0.660375655,-0.083138049,0.024365723,0.181156933,-2.769914865,-0.297519296,3.351907253,0.412704855,0.765691664,-1.642287571
0.634847999,-0.401088536,-0.660375655,-0.083138049,0.024365723,0.181156933,-2.769914865,-0.297519296,3.351907253,0.412704855,0.765691664,-1.642287571
0.634847999,-0.401088536,-0.660375655,-0.083138049,0.024365723,0.181156933,-2.769914865,-0.297519296,3.351907253,0.412704855,0.765691664,-1.642287571
0.554220259,-0.419421285,-0.718975484,-0.050270081,0.019108474,0.216639936,-2.332994699,-1.115310669,3.756934881,0.432807724,0.656710372,-1.450255335
0.554220259,-0.419421285,-0.718975484,-0.050270081,0.019108474,0.216639936,-2.332994699,-1.115310669,3.756934881,0.432807724,0.656710372,-1.450255335
0.554220259,-0.419421285,-0.718975484,-0.050270081,0.019108474,0.216639936,-2.332994699,-1.115310669,3.756934881,0.432807724,0.656710372,-1.450255335
0.554220259,-0.419421285,-0.718975484,-0.050270081,0.019108474,0.216639936,-2.332994699,-1.115310669,3.756934881,0.432807724,0.656710372,-1.450255335
0.554220259,-0.419421285,-0.718975484,-0.050270081,0.019108474,0.216639936,-2.332994699,-1.115310669,3.756934881,0.432807724,0.656710372,-1.450255335
0.554220259,-0.419421285,-0.718975484,-0.050270081,0.019108474,0.216639936,-2.332994699,-1.115310669,3.756934881,0.432807724,0.656710372,-1.450255335
0.554220259,-0.419421285,-0.718975484,-0.050270081,0.019108474,0.216639936,-2.332994699,-1.115310669,3.756934881,0.432807724,0.656710372,-1.450255335
0.554220259,-0.419421285,-0.718975484,-0.050270081,0.019108474,0.216639936,-2.332994699,-1.115310669,3.756934881,0.432807724,0.656710372,-1.450255335
0.554220259,-0.419421285,-0.718975484,-0.050270081,0.019108474,0.216639936,-2.332994699,-1.115310669,3.756934881,0.432807724,0.656710372,-1.450255335
0.554220259,-0.419421285,-0.718975484,-0.050270081,0.019108474,0.216639936,-2.332994699,-1.115310669,3.756934881,0.432807724,0.656710372,-1.450255335
0.554220259,-0.419421285,-0.718975484,-0.050270081,0.019108474,0.216639936,-2.332994699,-1.115310669,3.756934881,0.432807724,0.656710372,-1.450255335
0.554220259,-0.419421285,-0.718975484,-0.050270081,0.019108474,0.216639936,-2.332994699,-1.115310669,3.756934881,0.432807724,0.656710372,-1.450255335
0.441201001,-0.425969243,-0.789868236,-0.032892615,0.32494247,0.277553618,-2.65074873,-2.128525734,4.121404648,0.440032925,0.50940319,-1.248147169
0.441201001,-0.425969243,-0.789868236,-0.032892615,0.32494247,0.277553618,-2.65074873,-2.128525734,4.121404648,0.440032925,0.50940319,-1.248147169
0.441201001,-0.425969243,-0.789868236,-0.032892615,0.32494247,0.277553618,-2.65074873,-2.128525734,4.121404648,0.440032925,0.50940319,-1.248147169
0.441201001,-0.425969243,-0.789868236,-0.032892615,0.32494247,0.277553618,-2.65074873,-2.128525734,4.121404648,0.440032925,0.50940319,-1.248147169
0.441201001,-0.425969243,-0.789868236,-0.032892615,0.32494247,0.277553618,-2.65074873,-2.128525734,4.121404648,0.440032925,0.50940319,-1.248147169
0.441201001,-0.425969243,-0.789868236,-0.032892615,0.32494247,0.277553618,-2.65074873,-2.128525734,4.121404648,0.440032925,0.50940319,-1.248147169
0.441201001,-0.425969243,-0.789868236,-0.032892615,0.32494247,0.277553618,-2.65074873,-2.128525734,4.121404648,0.440032925,0.50940319,-1.248147169
0.441201001,-0.425969243,-0.789868236,-0.032892615,0.32494247,0.277553618,-2.65074873,-2.128525734,4.121404648,0.440032925,0.50940319,-1.248147169
0.441201001,-0.425969243,-0.789868236,-0.032892615,0.32494247,0.277553618,-2.65074873,-2.128525734,4.121404648,0.440032925,0.50940319,-1.248147169
0.441201001,-0.425969243,-0.789868236,-0.032892615,0.32494247,0.277553618,-2.65074873,-2.128525734,4.121404648,0.440032925,0.50940319,-1.248147169
0.274749547,-0.374826074,-0.885447979,-0.058640182,-0.267064065,0.043376029,-4.452726841,-3.454747438,3.983611584,0.384209169,0.300874237,-1.027075883
0.274749547,-0.374826074,-0.885447979,-0.058640182,-0.267064065,0.043376029,-4.452726841,-3.454747438,3.983611584,0.384209169,0.300874237,-1.027075883
0.274749547,-0.374826074,-0.885447979,-0.058640182,-0.267064065,0.043376029,-4.452726841,-3.454747438,3.983611584,0.384209169,0.300874237,-1.027075883
0.274749547,-0.374826074,-0.885447979,-0.058640182,-0.267064065,0.043376029,-4.452726841,-3.454747438,3.983611584,0.384209169,0.300874237,-1.027075883
0.274749547,-0.374826074,-0.885447979,-0.058640182,-0.267064065,0.043376029,-4.452726841,-3.454747438,3.983611584,0.384209169,0.300874237,-1.027075883
0.274749547,-0.374826074,-0.885447979,-0.058640182,-0.267064065,0.043376029,-4.452726841,-3.454747438,3.983611584,0.384209169,0.300874237,-1.027075883
0.118540548,-0.202639848,-0.972052097,-0.004908688,0.095295027,0.496618629,-4.386176109,-3.310457468,3.128790379,0.204052944,0.121349583,-0.830802642
0.118540548,-0.202639848,-0.972052097,-0.004908688,0.095295027,0.496618629,-4.386176109,-3.310457468,3.128790379,0.204052944,0.121349583,-0.830802642
0.118540548,-0.202639848,-0.972052097,-0.004908688,0.095295027,0.496618629,-4.386176109,-3.310457468,3.128790379,0.204052944,0.121349583,-0.830802642
0.118540548,-0.202639848,-0.972052097,-0.004908688,0.095295027,0.496618629,-4.386176109,-3.310457468,3.128790379,0.204052944,0.121349583,-0.830802642
0.118540548,-0.202639848,-0.972052097,-0.004908688,0.095295027,0.496618629,-4.386176109,-3.310457468,3.128790379,0.204052944,0.121349583,-0.830802642
0.118540548,-0.202639848,-0.972052097,-0.004908688,0.095295027,0.496618629,-4.386176109,-3.310457468,3.128790379,0.204052944,0.121349583,-0.830802642
0.118540548,-0.202639848,-0.972052097,-0.004908688,0.095295027,0.496618629,-4.386176109,-3.310457468,3.128790379,0.204052944,0.121349583,-0.830802642
0.118540548,-0.202639848,-0.972052097,-0.004908688,0.095295027,0.496618629,-4.386176109,-3.310457468,3.128790379,0.204052944,0.121349583,-0.830802642
0.118540548,-0.202639848,-0.972052097,-0.004908688,0.095295027,0.496618629,-4.386176109,-3.310457468,3.128790379,0.204052944,0.121349583,-0.830802642
0.118540548,-0.202639848,-0.972052097,-0.004908688,0.095295027,0.496618629,-4.386176109,-3.310457468,3.128790379,0.204052944,0.121349583,-0.830802642
0.118540548,-0.202639848,-0.972052097,-0.004908688,0.095295027,0.496618629,-4.386176109,-3.310457468,3.128790379,0.204052944,0.121349583,-0.830802642
0.118540548,-0.202639848,-0.972052097,-0.004908688,0.095295027,0.496618629,-4.386176109,-3.310457468,3.128790379,0.204052944,0.121349583,-0.830802642
-0.076403208,-0.143555209,-0.986688614,0.054934435,0.167283252,-0.03417021,0.180038631,-5.321736813,2.586497068,0.144052908,-0.07727975,-0.717994884
-0.076403208,-0.143555209,-0.986688614,0.054934435,0.167283252,-0.03417021,0.180038631,-5.321736813,2.586497068,0.144052908,-0.07727975,-0.717994884
-0.076403208,-0.143555209,-0.986688614,0.054934435,0.167283252,-0.03417021,0.180038631,-5.321736813,2.586497068,0.144052908,-0.07727975,-0.717994884
-0.076403208,-0.143555209,-0.986688614,0.054934435,0.167283252,-0.03417021,0.180038631,-5.321736813,2.586497068,0.144052908,-0.07727975,-0.717994884
-0.076403208,-0.143555209,-0.986688614,0.054934435,0.167283252,-0.03417021,0.180038631,-5.321736813,2.586497068,0.144052908,-0.07727975,-0.717994884
-0.076403208,-0.143555209,-0.986688614,0.054934435,0.167283252,-0.03417021,0.180038631,-5.321736813,2.586497068,0.144052908,-0.07727975,-0.717994884
-0.076403208,-0.143555209,-0.986688614,0.054934435,0.167283252,-0.03417021,0.180038631,-5.321736813,2.586497068,0.144052908,-0.07727975,-0.717994884
-0.076403208,-0.143555209,-0.986688614,0.054934435,0.167283252,-0.03417021,0.180038631,-5.321736813,2.586497068,0.144052908,-0.07727975,-0.717994884
-0.076403208,-0.143555209,-0.986688614,0.054934435,0.167283252,-0.03417021,0.180038631,-5.321736813,2.586497068,0.144052908,-0.07727975,-0.717994884
-0.076403208,-0.143555209,-0.986688614,0.054934435,0.167283252,-0.03417021,0.180038631,-5.321736813,2.586497068,0.144052908,-0.07727975,-0.717994884
-0.076403208,-0.143555209,-0.986688614,0.054934435,0.167283252,-0.03417021,0.180038631,-5.321736813,2.586497068,0.144052908,-0.07727975,-0.717994884
-0.076403208,-0.143555209,-0.986688614,0.054934435,0.167283252,-0.03417021,0.180038631,-5.321736813,2.586497068,0.144052908,-0.07727975,-0.717994884
-0.258284152,-0.121824063,-0.958357036,-0.269562125,-0.103166252,0.243665695,0.025192568,-3.331792831,1.958109379,0.122127425,-0.263252477,-0.620790344
-0.258284152,-0.121824063,-0.958357036,-0.269562125,-0.103166252,0.243665695,0.025192568,-3.331792831,1.958109379,0.122127425,-0.263252477,-0.620790344
-0.258284152,-0.121824063,-0.958357036,-0.269562125,-0.103166252,0.243665695,0.025192568,-3.331792831,1.958109379,0.122127425,-0.263252477,-0.620790344
-0.258284152,-0.121824063,-0.958357036,-0.269562125,-0.103166252,0.243665695,0.025192568,-3.331792831,1.958109379,0.122127425,-0.263252477,-0.620790344
-0.258284152,-0.121824063,-0.958357036,-0.269562125,-0.103166252,0.243665695,0.025192568,-3.331792831,1.958109379,0.122127425,-0.263252477,-0.620790344
-0.258284152,-0.121824063,-0.958357036,-0.269562125,-0.103166252,0.243665695,0.025192568,-3.331792831,1.958109379,0.122127425,-0.263252477,-0.620790344
-0.258284152,-0.121824063,-0.958357036,-0.269562125,-0.103166252,0.243665695,0.025192568,-3.331792831,1.958109379,0.122127425,-0.263252477,-0.620790344
-0.258284152,-0.121824063,-0.958357036,-0.269562125,-0.103166252,0.243665695,0.025192568,-3.331792831,1.958109379,0.122127425,-0.263252477,-0.620790344
-0.258284152,-0.121824063,-0.958357036,-0.269562125,-0.103166252,0.243665695,0.025192568,-3.331792831,1.958109379,0.122127425,-0.263252477,-0.620790344
-0.258284152,-0.121824063,-0.958357036,-0.269562125,-0.103166252,0.243665695,0.025192568,-3.331792831,1.958109379,0.122127425,-0.263252477,-0.620790344
-0.258284152,-0.121824063,-0.958357036,-0.269562125,-0.103166252,0.243665695,0.025192568,-3.331792831,1.958109379,0.122127425,-0.263252477,-0.620790344
-0.258284152,-0.121824063,-0.958357036,-0.269562125,-0.103166252,0.243665695,0.025192568,-3.331792831,1.958109379,0.122127425,-0.263252477,-0.620790344
-0.258284152,-0.121824063,-0.958357036,-0.269562125,-0.103166252,0.243665695,0.025192568,-3.331792831,1.958109379,0.122127425,-0.263252477,-0.620790344
-0.258284152,-0.121824063,-0.958357036,-0.269562125,-0.103166252,0.243665695,0.025192568,-3.331792831,1.958109379,0.122127425,-0.263252477,-0.620790344
-0.258284152,-0.121824063,-0.958357036,-0.269562125,-0.103166252,0.243665695,0.025192568,-3.331792831,1.958109379,0.122127425,-0.263252477,-0.620790344
-0.402457327,-0.17156592,-0.899218142,0.008950025,0.068356186,-0.130109727,3.130237341,-4.040502071,1.391163349,0.172418939,-0.420825996,-0.539697169
-0.402457327,-0.17156592,-0.899218142,0.008950025,0.068356186,-0.130109727,3.130237341,-4.040502071,1.391163349,0.172418939,-0.420825996,-0.539697169
-0.402457327,-0.17156592,-0.899218142,0.008950025,0.068356186,-0.130109727,3.130237341,-4.040502071,1.391163349,0.172418939,-0.420825996,-0.539697169
-0.402457327,-0.17156592,-0.899218142,0.008950025,0.068356186,-0.130109727,3.130237341,-4.040502071,1.391163349,0.172418939,-0.420825996,-0.539697169
-0.402457327,-0.17156592,-0.899218142,0.008950025,0.068356186,-0.130109727,3.130237341,-4.040502071,1.391163349,0.172418939,-0.420825996,-0.539697169
-0.402457327,-0.17156592,-0.899218142,0.008950025,0.068356186,-0.130109727,3.130237341,-4.040502071,1.391163349,0.172418939,-0.420825996,-0.539697169
-0.402457327,-0.17156592,-0.899218142,0.008950025,0.068356186,-0.130109727,3.130237341,-4.040502071,1.391163349,0.172418939,-0.420825996,-0.539697169
-0.402457327,-0.17156592,-0.899218142,0.008950025,0.068356186,-0.130109727,3.130237341,-4.040502071,1.391163349,0.172418939,-0.420825996,-0.539697169
-0.402457327,-0.17156592,-0.899218142,0.008950025,0.068356186,-0.130109727,3.130237341,-4.040502071,1.391163349,0.172418939,-0.420825996,-0.539697169
-0.402457327,-0.17156592,-0.899218142,0.008950025,0.068356186,-0.130109727,3.130237341,-4.040502071,1.391163349,0.172418939,-0.420825996,-0.539697169
-0.402457327,-0.17156592,-0.899218142,0.008950025,0.068356186,-0.130109727,3.130237341,-4.040502071,1.391163349,0.172418939,-0.420825996,-0.539697169
-0.402457327,-0.17156592,-0.899218142,0.008950025,0.068356186,-0.130109727,3.130237341,-4.040502071,1.391163349,0.172418939,-0.420825996,-0.539697169
-0.402457327,-0.17156592,-0.899218142,0.008950025,0.068356186,-0.130109727,3.130237341,-4.040502071,1.391163349,0.172418939,-0.420825996,-0.539697169
-0.402457327,-0.17156592,-0.899218142,0.008950025,0.068356186,-0.130109727,3.130237341,-4.040502071,1.391163349,0.172418939,-0.420825996,-0.539697169
-0.402457327,-0.17156592,-0.899218142,0.008950025,0.068356186,-0.130109727,3.130237341,-4.040502071,1.391163349,0.172418939,-0.420825996,-0.539697169
-0.544233024,-0.241762236,-0.803343892,-0.408783138,-0.358410805,-0.314103782,3.072664022,-3.363379002,2.177945137,0.244181545,-0.595437457,-0.407354222
-0.544233024,-0.241762236,-0.803343892,-0.408783138,-0.358410805,-0.314103782,3.072664022,-3.363379002,2.177945137,0.244181545,-0.595437457,-0.407354222
-0.544233024,-0.241762236,-0.803343892,-0.408783138,-0.358410805,-0.314103782,3.072664022,-3.363379002,2.177945137,0.244181545,-0.595437457,-0.407354222
-0.544233024,-0.241762236,-0.803343892,-0.408783138,-0.358410805,-0.314103782,3.072664022,-3.363379002,2.177945137,0.244181545,-0.595437457,-0.407354222
-0.544233024,-0.241762236,-0.803343892,-0.408783138,-0.358410805,-0.314103782,3.072664022,-3.363379002,2.177945137,0.244181545,-0.595437457,-0.407354222
-0.544233024,-0.241762236,-0.803343892,-0.408783138,-0.358410805,-0.314103782,3.072664022,-3.363379002,2.177945137,0.244181545,-0.595437457,-0.407354222
-0.649756312,-0.303401709,-0.69696784,-0.158331513,-0.131426901,0.044821322,3.349694252,-2.442960024,1.433483958,0.308260615,-0.75035595,-0.267192531
-0.649756312,-0.303401709,-0.69696784,-0.158331513,-0.131426901,0.044821322,3.349694252,-2.442960024,1.433483958,0.308260615,-0.75035595,-0.267192531
-0.649756312,-0.303401709,-0.69696784,-0.158331513,-0.131426901,0.044821322,3.349694252,-2.442960024,1.433483958,0.308260615,-0.75035595,-0.267192531
-0.649756312,-0.303401709,-0.69696784,-0.158331513,-0.131426901,0.044821322,3.349694252,-2.442960024,1.433483958,0.308260615,-0.75035595,-0.267192531
-0.649756312,-0.303401709,-0.69696784,-0.158331513,-0.131426901,0.044821322,3.349694252,-2.442960024,1.433483958,0.308260615,-0.75035595,-0.267192531
-0.649756312,-0.303401709,-0.69696784,-0.158331513,-0.131426901,0.044821322,3.349694252,-2.442960024,1.433483958,0.308260615,-0.75035595,-0.267192531
-0.649756312,-0.303401709,-0.69696784,-0.158331513,-0.131426901,0.044821322,3.349694252,-2.442960024,1.433483958,0.308260615,-0.75035595,-0.267192531
-0.649756312,-0.303401709,-0.69696784,-0.158331513,-0.131426901,0.044821322,3.349694252,-2.442960024,1.433483958,0.308260615,-0.75035595,-0.267192531
-0.649756312,-0.303401709,-0.69696784,-0.158331513,-0.131426901,0.044821322,3.349694252,-2.442960024,1.433483958,0.308260615,-0.75035595,-0.267192531
-0.649756312,-0.303401709,-0.69696784,-0.158331513,-0.131426901,0.044821322,3.349694252,-2.442960024,1.433483958,0.308260615,-0.75035595,-0.267192531
-0.649756312,-0.303401709,-0.69696784,-0.158331513,-0.131426901,0.044821322,3.349694252,-2.442960024,1.433483958,0.308260615,-0.75035595,-0.267192531
-0.731505334,-0.326533616,-0.598561347,-0.324644029,-0.449343979,-0.306286514,1.990933299,-2.559057474,1.600012779,0.332633819,-0.88502016,-0.145681765
-0.731505334,-0.326533616,-0.598561347,-0.324644029,-0.449343979,-0.306286514,1.990933299,-2.559057474,1.600012779,0.332633819,-0.88502016,-0.145681765
-0.731505334,-0.326533616,-0.598561347,-0.324644029,-0.449343979,-0.306286514,1.990933299,-2.559057474,1.600012779,0.332633819,-0.88502016,-0.145681765
-0.731505334,-0.326533616,-0.598561347,-0.324644029,-0.449343979,-0.306286514,1.990933299,-2.559057474,1.600012779,0.332633819,-0.88502016,-0.145681765
-0.731505334,-0.326533616,-0.598561347,-0.324644029,-0.449343979,-0.306286514,1.990933299,-2.559057474,1.600012779,0.332633819,-0.88502016,-0.145681765
-0.731505334,-0.326533616,-0.598561347,-0.324644029,-0.449343979,-0.306286514,1.990933299,-2.559057474,1.600012779,0.332633819,-0.88502016,-0.145681765
-0.731505334,-0.326533616,-0.598561347,-0.324644029,-0.449343979,-0.306286514,1.990933299,-2.559057474,1.600012779,0.332633819,-0.88502016,-0.145681765
-0.731505334,-0.326533616,-0.598561347,-0.324644029,-0.449343979,-0.306286514,1.990933299,-2.559057474,1.600012779,0.332633819,-0.88502016,-0.145681765
-0.731505334,-0.326533616,-0.598561347,-0.324644029,-0.449343979,-0.306286514,1.990933299,-2.559057474,1.600012779,0.332633819,-0.88502016,-0.145681765
-0.731505334,-0.326533616,-0.598561347,-0.324644029,-0.449343979,-0.306286514,1.990933299,-2.559057474,1.600012779,0.332633819,-0.88502016,-0.145681765
-0.731505334,-0.326533616,-0.598561347,-0.324644029,-0.449343979,-0.306286514,1.990933299,-2.559057474,1.600012779,0.332633819,-0.88502016,-0.145681765
-0.731505334,-0.326533616,-0.598561347,-0.324644029,-0.449343979,-0.306286514,1.990933299,-2.559057474,1.600012779,0.332633819,-0.88502016,-0.145681765
-0.731505334,-0.326533616,-0.598561347,-0.324644029,-0.449343979,-0.306286514,1.990933299,-2.559057474,1.600012779,0.332633819,-0.88502016,-0.145681765
-0.80278343,-0.33052516,-0.496278137,-0.213891387,-0.081262499,0.047362566,2.414980412,-2.072624922,0.898431599,0.336859965,-1.01710417,-0.042622081
-0.80278343,-0.33052516,-0.496278137,-0.213891387,-0.081262499,0.047362566,2.414980412,-2.072624922,0.898431599,0.336859965,-1.01710417,-0.042622081
-0.80278343,-0.33052516,-0.496278137,-0.213891387,-0.081262499,0.047362566,2.414980412,-2.072624922,0.898431599,0.336859965,-1.01710417,-0.042622081
-0.80278343,-0.33052516,-0.496278137,-0.213891387,-0.081262499,0.047362566,2.414980412,-2.072624922,0.898431599,0.336859965,-1.01710417,-0.042622081
-0.80278343,-0.33052516,-0.496278137,-0.213891387,-0.081262499,0.047362566,2.414980412,-2.072624922,0.898431599,0.336859965,-1.01710417,-0.042622081
-0.80278343,-0.33052516,-0.496278137,-0.213891387,-0.081262499,0.047362566,2.414980412,-2.072624922,0.898431599,0.336859965,-1.01710417,-0.042622081
-0.80278343,-0.33052516,-0.496278137,-0.213891387,-0.081262499,0.047362566,2.414980412,-2.072624922,0.898431599,0.336859965,-1.01710417,-0.042622081
-0.80278343,-0.33052516,-0.496278137,-0.213891387,-0.081262499,0.047362566,2.414980412,-2.072624922,0.898431599,0.336859965,-1.01710417,-0.042622081
-0.80278343,-0.33052516,-0.496278137,-0.213891387,-0.081262499,0.047362566,2.414980412,-2.072624922,0.898431599,0.336859965,-1.01710417,-0.042622081
-0.80278343,-0.33052516,-0.496278137,-0.213891387,-0.081262499,0.047362566,2.414980412,-2.072624922,0.898431599,0.336859965,-1.01710417,-0.042622081
-0.80278343,-0.33052516,-0.496278137,-0.213891387,-0.081262499,0.047362566,2.414980412,-2.072624922,0.898431599,0.336859965,-1.01710417,-0.042622081
-0.80278343,-0.33052516,-0.496278137,-0.213891387,-0.081262499,0.047362566,2.414980412,-2.072624922,0.898431599,0.336859965,-1.01710417,-0.042622081
-0.844996929,-0.337429881,-0.414875001,-0.360978007,-0.414582908,-0.186125457,0.406634063,-1.517495751,0.874792218,0.344185323,-1.114392234,0.045434052
-0.844996929,-0.337429881,-0.414875001,-0.360978007,-0.414582908,-0.186125457,0.406634063,-1.517495751,0.874792218,0.344185323,-1.114392234,0.045434052
-0.844996929,-0.337429881,-0.414875001,-0.360978007,-0.414582908,-0.186125457,0.406634063,-1.517495751,0.874792218,0.344185323,-1.114392234,0.045434052
-0.844996929,-0.337429881,-0.414875001,-0.360978007,-0.414582908,-0.186125457,0.406634063,-1.517495751,0.874792218,0.344185323,-1.114392234,0.045434052
-0.844996929,-0.337429881,-0.414875001,-0.360978007,-0.414582908,-0.186125457,0.406634063,-1.517495751,0.874792218,0.344185323,-1.114392234,0.045434052
-0.844996929,-0.337429881,-0.414875001,-0.360978007,-0.414582908,-0.186125457,0.406634063,-1.517495751,0.874792218,0.344185323,-1.114392234,0.045434052
-0.844996929,-0.337429881,-0.414875001,-0.360978007,-0.414582908,-0.186125457,0.406634063,-1.517495751,0.874792218,0.344185323,-1.114392234,0.045434052
-0.844996929,-0.337429881,-0.414875001,-0.360978007,-0.414582908,-0.186125457,0.406634063,-1.517495751,0.874792218,0.344185323,-1.114392234,0.045434052
-0.844996929,-0.337429881,-0.414875001,-0.360978007,-0.414582908,-0.186125457,0.406634063,-1.517495751,0.874792218,0.344185323,-1.114392234,0.045434052
-0.844996929,-0.337429881,-0.414875001,-0.360978007,-0.414582908,-0.186125457,0.406634063,-1.517495751,0.874792218,0.344185323,-1.114392234,0.045434052
-0.844996929,-0.337429881,-0.414875001,-0.360978007,-0.414582908,-0.186125457,0.406634063,-1.517495751,0.874792218,0.344185323,-1.114392234,0.045434052
-0.844996929,-0.337429881,-0.414875001,-0.360978007,-0.414582908,-0.186125457,0.406634063,-1.517495751,0.874792218,0.344185323,-1.114392234,0.045434052
-0.844996929,-0.337429881,-0.414875001,-0.360978007,-0.414582908,-0.186125457,0.406634063,-1.517495751,0.874792218,0.344185323,-1.114392234,0.045434052
-0.844996929,-0.337429881,-0.414875001,-0.360978007,-0.414582908,-0.186125457,0.406634063,-1.517495751,0.874792218,0.344185323,-1.114392234,0.045434052
-0.844996929,-0.337429881,-0.414875001,-0.360978007,-0.414582908,-0.186125457,0.406634063,-1.517495751,0.874792218,0.344185323,-1.114392234,0.045434052
-0.844996929,-0.337429881,-0.414875001,-0.360978007,-0.414582908,-0.186125457,0.406634063,-1.517495751,0.874792218,0.344185323,-1.114392234,0.045434052
-0.844996929,-0.337429881,-0.414875001,-0.360978007,-0.414582908,-0.186125457,0.406634063,-1.517495751,0.874792218,0.344185323,-1.114392234,0.045434052
-0.844996929,-0.337429881,-0.414875001,-0.360978007,-0.414582908,-0.186125457,0.406634063,-1.517495751,0.874792218,0.344185323,-1.114392234,0.045434052
-0.879084885,-0.302880526,-0.368066996,-0.135178804,-0.170964718,-0.199165702,-0.811675787,-1.607575178,0.403110921,0.30771372,-1.174279559,0.036029594
-0.879084885,-0.302880526,-0.368066996,-0.135178804,-0.170964718,-0.199165702,-0.811675787,-1.607575178,0.403110921,0.30771372,-1.174279559,0.036029594
-0.879084885,-0.302880526,-0.368066996,-0.135178804,-0.170964718,-0.199165702,-0.811675787,-1.607575178,0.403110921,0.30771372,-1.174279559,0.036029594
-0.879084885,-0.302880526,-0.368066996,-0.135178804,-0.170964718,-0.199165702,-0.811675787,-1.607575178,0.403110921,0.30771372,-1.174279559,0.036029594
-0.879084885,-0.302880526,-0.368066996,-0.135178804,-0.170964718,-0.199165702,-0.811675787,-1.607575178,0.403110921,0.30771372,-1.174279559,0.036029594
-0.879084885,-0.302880526,-0.368066996,-0.135178804,-0.170964718,-0.199165702,-0.811675787,-1.607575178,0.403110921,0.30771372,-1.174279559,0.036029594
-0.879084885,-0.302880526,-0.368066996,-0.135178804,-0.170964718,-0.199165702,-0.811675787,-1.607575178,0.403110921,0.30771372,-1.174279559,0.036029594
-0.879084885,-0.302880526,-0.368066996,-0.135178804,-0.170964718,-0.199165702,-0.811675787,-1.607575178,0.403110921,0.30771372,-1.174279559,0.036029594
-0.879084885,-0.302880526,-0.368066996,-0.135178804,-0.170964718,-0.199165702,-0.811675787,-1.607575178,0.403110921,0.30771372,-1.174279559,0.036029594
-0.904880404,-0.283544302,-0.317481101,-0.09461242,-0.12503913,-0.086238742,-0.776513994,-1.576880813,0.141964599,0.287488091,-1.233360717,0.013567304
-0.904880404,-0.283544302,-0.317481101,-0.09461242,-0.12503913,-0.086238742,-0.776513994,-1.576880813,0.141964599,0.287488091,-1.233360717,0.013567304
-0.904880404,-0.283544302,-0.317481101,-0.09461242,-0.12503913,-0.086238742,-0.776513994,-1.576880813,0.141964599,0.287488091,-1.233360717,0.013567304
-0.904880404,-0.283544302,-0.317481101,-0.09461242,-0.12503913,-0.086238742,-0.776513994,-1.576880813,0.141964599,0.287488091,-1.233360717,0.013567304
-0.904880404,-0.283544302,-0.317481101,-0.09461242,-0.12503913,-0.086238742,-0.776513994,-1.576880813,0.141964599,0.287488091,-1.233360717,0.013567304
-0.904880404,-0.283544302,-0.317481101,-0.09461242,-0.12503913,-0.086238742,-0.776513994,-1.576880813,0.141964599,0.287488091,-1.233360717,0.013567304
-0.904880404,-0.283544302,-0.317481101,-0.09461242,-0.12503913,-0.086238742,-0.776513994,-1.576880813,0.141964599,0.287488091,-1.233360717,0.013567304
-0.904880404,-0.283544302,-0.317481101,-0.09461242,-0.12503913,-0.086238742,-0.776513994,-1.576880813,0.141964599,0.287488091,-1.233360717,0.013567304
-0.904880404,-0.283544302,-0.317481101,-0.09461242,-0.12503913,-0.086238742,-0.776513994,-1.576880813,0.141964599,0.287488091,-1.233360717,0.013567304
-0.904880404,-0.283544302,-0.317481101,-0.09461242,-0.12503913,-0.086238742,-0.776513994,-1.576880813,0.141964599,0.287488091,-1.233360717,0.013567304
-0.904880404,-0.283544302,-0.317481101,-0.09461242,-0.12503913,-0.086238742,-0.776513994,-1.576880813,0.141964599,0.287488091,-1.233360717,0.013567304
-0.904880404,-0.283544302,-0.317481101,-0.09461242,-0.12503913,-0.086238742,-0.776513994,-1.576880813,0.141964599,0.287488091,-1.233360717,0.013567304
-0.904880404,-0.283544302,-0.317481101,-0.09461242,-0.12503913,-0.086238742,-0.776513994,-1.576880813,0.141964599,0.287488091,-1.233360717,0.013567304
-0.904880404,-0.283544302,-0.317481101,-0.09461242,-0.12503913,-0.086238742,-0.776513994,-1.576880813,0.141964599,0.287488091,-1.233360717,0.013567304
-0.904880404,-0.283544302,-0.317481101,-0.09461242,-0.12503913,-0.086238742,-0.776513994,-1.576880813,0.141964599,0.287488091,-1.233360717,0.013567304
-0.917060256,-0.286099523,-0.277754605,-0.240773141,0.370420694,-0.200641811,1.485987663,-0.314461082,0.050603732,0.290153718,-1.276704023,0.031972462
-0.917060256,-0.286099523,-0.277754605,-0.240773141,0.370420694,-0.200641811,1.485987663,-0.314461082,0.050603732,0.290153718,-1.276704023,0.031972462
-0.917060256,-0.286099523,-0.277754605,-0.240773141,0.370420694,-0.200641811,1.485987663,-0.314461082,0.050603732,0.290153718,-1.276704023,0.031972462
-0.917060256,-0.286099523,-0.277754605,-0.240773141,0.370420694,-0.200641811,1.485987663,-0.314461082,0.050603732,0.290153718,-1.276704023,0.031972462
-0.917060256,-0.286099523,-0.277754605,-0.240773141,0.370420694,-0.200641811,1.485987663,-0.314461082,0.050603732,0.290153718,-1.276704023,0.031972462
-0.917060256,-0.286099523,-0.277754605,-0.240773141,0.370420694,-0.200641811,1.485987663,-0.314461082,0.050603732,0.290153718,-1.276704023,0.031972462
-0.917060256,-0.286099523,-0.277754605,-0.240773141,0.370420694,-0.200641811,1.485987663,-0.314461082,0.050603732,0.290153718,-1.276704023,0.031972462
-0.917060256,-0.286099523,-0.277754605,-0.240773141,0.370420694,-0.200641811,1.485987663,-0.314461082,0.050603732,0.290153718,-1.276704023,0.031972462
-0.917060256,-0.286099523,-0.277754605,-0.240773141,0.370420694,-0.200641811,1.485987663,-0.314461082,0.050603732,0.290153718,-1.276704023,0.031972462
-0.917060256,-0.286099523,-0.277754605,-0.240773141,0.370420694,-0.200641811,1.485987663,-0.314461082,0.050603732,0.290153718,-1.276704023,0.031972462
-0.917060256,-0.286099523,-0.277754605,-0.240773141,0.370420694,-0.200641811,1.485987663,-0.314461082,0.050603732,0.290153718,-1.276704023,0.031972462
-0.917060256,-0.286099523,-0.277754605,-0.240773141,0.370420694,-0.200641811,1.485987663,-0.314461082,0.050603732,0.290153718,-1.276704023,0.031972462
-0.917060256,-0.286099523,-0.277754605,-0.240773141,0.370420694,-0.200641811,1.485987663,-0.314461082,0.050603732,0.290153718,-1.276704023,0.031972462
-0.917060256,-0.286099523,-0.277754605,-0.240773141,0.370420694,-0.200641811,1.485987663,-0.314461082,0.050603732,0.290153718,-1.276704023,0.031972462
-0.917060256,-0.286099523,-0.277754605,-0.240773141,0.370420694,-0.200641811,1.485987663,-0.314461082,0.050603732,0.290153718,-1.276704023,0.031972462
-0.917060256,-0.286099523,-0.277754605,-0.240773141,0.370420694,-0.200641811,1.485987663,-0.314461082,0.050603732,0.290153718,-1.276704023,0.031972462
-0.917060256,-0.286099523,-0.277754605,-0.240773141,0.370420694,-0.200641811,1.485987663,-0.314461082,0.050603732,0.290153718,-1.276704023,0.031972462
-0.912513554,-0.302916408,-0.274883211,-0.10486275,-0.087295413,-0.181906819,0.102336206,0.483549863,-0.063754,0.307751369,-1.278204693,0.074227144
-0.912513554,-0.302916408,-0.274883211,-0.10486275,-0.087295413,-0.181906819,0.102336206,0.483549863,-0.063754,0.307751369,-1.278204693,0.074227144
-0.912513554,-0.302916408,-0.274883211,-0.10486275,-0.087295413,-0.181906819,0.102336206,0.483549863,-0.063754,0.307751369,-1.278204693,0.074227144
-0.912513554,-0.302916408,-0.274883211,-0.10486275,-0.087295413,-0.181906819,0.102336206,0.483549863,-0.063754,0.307751369,-1.278204693,0.074227144
-0.912513554,-0.302916408,-0.274883211,-0.10486275,-0.087295413,-0.181906819,0.102336206,0.483549863,-0.063754,0.307751369,-1.278204693,0.074227144
-0.912513554,-0.302916408,-0.274883211,-0.10486275,-0.087295413,-0.181906819,0.102336206,0.483549863,-0.063754,0.307751369,-1.278204693,0.074227144
-0.912513554,-0.302916408,-0.274883211,-0.10486275,-0.087295413,-0.181906819,0.102336206,0.483549863,-0.063754,0.307751369,-1.278204693,0.074227144
-0.912513554,-0.302916408,-0.274883211,-0.10486275,-0.087295413,-0.181906819,0.102336206,0.483549863,-0.063754,0.307751369,-1.278204693,0.074227144
-0.912513554,-0.302916408,-0.274883211,-0.10486275,-0.087295413,-0.181906819,0.102336206,0.483549863,-0.063754,0.307751369,-1.278204693,0.074227144
-0.912513554,-0.302916408,-0.274883211,-0.10486275,-0.087295413,-0.181906819,0.102336206,0.483549863,-0.063754,0.307751369,-1.278204693,0.074227144
-0.912513554,-0.302916408,-0.274883211,-0.10486275,-0.087295413,-0.181906819,0.102336206,0.483549863,-0.063754,0.307751369,-1.278204693,0.074227144
-0.912513554,-0.302916408,-0.274883211,-0.10486275,-0.087295413,-0.181906819,0.102336206,0.483549863,-0.063754,0.307751369,-1.278204693,0.074227144
-0.912513554,-0.302916408,-0.274883211,-0.10486275,-0.087295413,-0.181906819,0.102336206,0.483549863,-0.063754,0.307751369,-1.278204693,0.074227144
-0.910727203,-0.297762305,-0.28620553,-0.000432611,0.047763467,-0.062186003,-0.157727107,-0.054517243,9.51E-05,0.302347777,-1.266308442,0.060616957
-0.910727203,-0.297762305,-0.28620553,-0.000432611,0.047763467,-0.062186003,-0.157727107,-0.054517243,9.51E-05,0.302347777,-1.266308442,0.060616957
-0.910727203,-0.297762305,-0.28620553,-0.000432611,0.047763467,-0.062186003,-0.157727107,-0.054517243,9.51E-05,0.302347777,-1.266308442,0.060616957
-0.910727203,-0.297762305,-0.28620553,-0.000432611,0.047763467,-0.062186003,-0.157727107,-0.054517243,9.51E-05,0.302347777,-1.266308442,0.060616957
-0.910727203,-0.297762305,-0.28620553,-0.000432611,0.047763467,-0.062186003,-0.157727107,-0.054517243,9.51E-05,0.302347777,-1.266308442,0.060616957
-0.910727203,-0.297762305,-0.28620553,-0.000432611,0.047763467,-0.062186003,-0.157727107,-0.054517243,9.51E-05,0.302347777,-1.266308442,0.060616957
-0.912438035,-0.296580404,-0.281952113,0.02537173,-0.045612156,0.057233155,-0.322791338,-0.161130279,0.021809746,0.301109941,-1.271094499,0.055016928
-0.912438035,-0.296580404,-0.281952113,0.02537173,-0.045612156,0.057233155,-0.322791338,-0.161130279,0.021809746,0.301109941,-1.271094499,0.055016928
-0.912438035,-0.296580404,-0.281952113,0.02537173,-0.045612156,0.057233155,-0.322791338,-0.161130279,0.021809746,0.301109941,-1.271094499,0.055016928
-0.913861871,-0.291197479,-0.282949895,0.01023972,-0.01788348,0.051471293,-0.2964288,-0.08997111,-0.000869735,0.295478332,-1.270537408,0.039264127
-0.913861871,-0.291197479,-0.282949895,0.01023972,-0.01788348,0.051471293,-0.2964288,-0.08997111,-0.000869735,0.295478332,-1.270537408,0.039264127
-0.913861871,-0.291197479,-0.282949895,0.01023972,-0.01788348,0.051471293,-0.2964288,-0.08997111,-0.000869735,0.295478332,-1.270537408,0.039264127
-0.913861871,-0.291197479,-0.282949895,0.01023972,-0.01788348,0.051471293,-0.2964288,-0.08997111,-0.000869735,0.295478332,-1.270537408,0.039264127
-0.913861871,-0.291197479,-0.282949895,0.01023972,-0.01788348,0.051471293,-0.2964288,-0.08997111,-0.000869735,0.295478332,-1.270537408,0.039264127
-0.913861871,-0.291197479,-0.282949895,0.01023972,-0.01788348,0.051471293,-0.2964288,-0.08997111,-0.000869735,0.295478332,-1.270537408,0.039264127
-0.913861871,-0.291197479,-0.282949895,0.01023972,-0.01788348,0.051471293,-0.2964288,-0.08997111,-0.000869735,0.295478332,-1.270537408,0.039264127
-0.913861871,-0.291197479,-0.282949895,0.01023972,-0.01788348,0.051471293,-0.2964288,-0.08997111,-0.000869735,0.295478332,-1.270537408,0.039264127
-0.913861871,-0.291197479,-0.282949895,0.01023972,-0.01788348,0.051471293,-0.2964288,-0.08997111,-0.000869735,0.295478332,-1.270537408,0.039264127
-0.914346278,-0.291595995,-0.280967891,0.006695509,0.025559992,0.027242303,-0.049895909,-0.059070971,0.012903602,0.295894927,-1.272666534,0.034433308
-0.914346278,-0.291595995,-0.280967891,0.006695509,0.025559992,0.027242303,-0.049895909,-0.059070971,0.012903602,0.295894927,-1.272666534,0.034433308
-0.914346278,-0.291595995,-0.280967891,0.006695509,0.025559992,0.027242303,-0.049895909,-0.059070971,0.012903602,0.295894927,-1.272666534,0.034433308
-0.914346278,-0.291595995,-0.280967891,0.006695509,0.025559992,0.027242303,-0.049895909,-0.059070971,0.012903602,0.295894927,-1.272666534,0.034433308
-0.914346278,-0.291595995,-0.280967891,0.006695509,0.025559992,0.027242303,-0.049895909,-0.059070971,0.012903602,0.295894927,-1.272666534,0.034433308
-0.914346278,-0.291595995,-0.280967891,0.006695509,0.025559992,0.027242303,-0.049895909,-0.059070971,0.012903602,0.295894927,-1.272666534,0.034433308
-0.914346278,-0.291595995,-0.280967891,0.006695509,0.025559992,0.027242303,-0.049895909,-0.059070971,0.012903602,0.295894927,-1.272666534,0.034433308
-0.914346278,-0.291595995,-0.280967891,0.006695509,0.025559992,0.027242303,-0.049895909,-0.059070971,0.012903602,0.295894927,-1.272666534,0.034433308
-0.914346278,-0.291595995,-0.280967891,0.006695509,0.025559992,0.027242303,-0.049895909,-0.059070971,0.012903602,0.295894927,-1.272666534,0.034433308
-0.914346278,-0.291595995,-0.280967891,0.006695509,0.025559992,0.027242303,-0.049895909,-0.059070971,0.012903602,0.295894927,-1.272666534,0.034433308
-0.914346278,-0.291595995,-0.280967891,0.006695509,0.025559992,0.027242303,-0.049895909,-0.059070971,0.012903602,0.295894927,-1.272666534,0.034433308
-0.914346278,-0.291595995,-0.280967891,0.006695509,0.025559992,0.027242303,-0.049895909,-0.059070971,0.012903602,0.295894927,-1.272666534,0.034433308
-0.917618454,-0.290927917,-0.270809144,0.042559981,0.095066935,0.027490377,0.143498167,-0.071872897,0.047765125,0.295196565,-1.283820985,0.035102796
-0.917618454,-0.290927917,-0.270809144,0.042559981,0.095066935,0.027490377,0.143498167,-0.071872897,0.047765125,0.295196565,-1.283820985,0.035102796
-0.917618454,-0.290927917,-0.270809144,0.042559981,0.095066935,0.027490377,0.143498167,-0.071872897,0.047765125,0.295196565,-1.283820985,0.035102796
-0.917618454,-0.290927917,-0.270809144,0.042559981,0.095066935,0.027490377,0.143498167,-0.071872897,0.047765125,0.295196565,-1.283820985,0.035102796
-0.917618454,-0.290927917,-0.270809144,0.042559981,0.095066935,0.027490377,0.143498167,-0.071872897,0.047765125,0.295196565,-1.283820985,0.035102796
-0.917618454,-0.290927917,-0.270809144,0.042559981,0.095066935,0.027490377,0.143498167,-0.071872897,0.047765125,0.295196565,-1.283820985,0.035102796
-0.917618454,-0.290927917,-0.270809144,0.042559981,0.095066935,0.027490377,0.143498167,-0.071872897,0.047765125,0.295196565,-1.283820985,0.035102796
-0.917618454,-0.290927917,-0.270809144,0.042559981,0.095066935,0.027490377,0.143498167,-0.071872897,0.047765125,0.295196565,-1.283820985,0.035102796
-0.917618454,-0.290927917,-0.270809144,0.042559981,0.095066935,0.027490377,0.143498167,-0.071872897,0.047765125,0.295196565,-1.283820985,0.035102796
-0.917618454,-0.290927917,-0.270809144,0.042559981,0.095066935,0.027490377,0.143498167,-0.071872897,0.047765125,0.295196565,-1.283820985,0.035102796
-0.917618454,-0.290927917,-0.270809144,0.042559981,0.095066935,0.027490377,0.143498167,-0.071872897,0.047765125,0.295196565,-1.283820985,0.035102796
-0.917618454,-0.290927917,-0.270809144,0.042559981,0.095066935,0.027490377,0.143498167,-0.071872897,0.047765125,0.295196565,-1.283820985,0.035102796
-0.917618454,-0.290927917,-0.270809144,0.042559981,0.095066935,0.027490377,0.143498167,-0.071872897,0.047765125,0.295196565,-1.283820985,0.035102796
-0.917618454,-0.290927917,-0.270809144,0.042559981,0.095066935,0.027490377,0.143498167,-0.071872897,0.047765125,0.295196565,-1.283820985,0.035102796
-0.917618454,-0.290927917,-0.270809144,0.042559981,0.095066935,0.027490377,0.143498167,-0.071872897,0.047765125,0.295196565,-1.283820985,0.035102796
-0.917823672,-0.294566929,-0.266139656,-0.019643188,-0.07875374,0.001321197,0.038835369,0.038151644,-0.047660358,0.299002304,-1.288568243,0.042765067
-0.917823672,-0.294566929,-0.266139656,-0.019643188,-0.07875374,0.001321197,0.038835369,0.038151644,-0.047660358,0.299002304,-1.288568243,0.042765067
-0.917823672,-0.294566929,-0.266139656,-0.019643188,-0.07875374,0.001321197,0.038835369,0.038151644,-0.047660358,0.299002304,-1.288568243,0.042765067
-0.917823672,-0.294566929,-0.266139656,-0.019643188,-0.07875374,0.001321197,0.038835369,0.038151644,-0.047660358,0.299002304,-1.288568243,0.042765067
-0.917823672,-0.294566929,-0.266139656,-0.019643188,-0.07875374,0.001321197,0.038835369,0.038151644,-0.047660358,0.299002304,-1.288568243,0.042765067
-0.917823672,-0.294566929,-0.266139656,-0.019643188,-0.07875374,0.001321197,0.038835369,0.038151644,-0.047660358,0.299002304,-1.288568243,0.042765067
-0.917823672,-0.294566929,-0.266139656,-0.019643188,-0.07875374,0.001321197,0.038835369,0.038151644,-0.047660358,0.299002304,-1.288568243,0.042765067