gravityX,gravityY,gravityZ,accelX,accelY,accelZ,rotRateX,rotRatY,rotRateZ,attPitch,attRoll,attYaw
-0.939989328,-0.341182947,0.003721528,-0.018186271,0.024578333,0.035157561,-0.208994567,0.193489224,-0.088185832,0.34817507,-1.574755424,2.794765772
-0.939989328,-0.341182947,0.003721528,-0.018186271,0.024578333,0.035157561,-0.208994567,0.193489224,-0.088185832,0.34817507,-1.574755424,2.794765772
-0.939989328,-0.341182947,0.003721528,-0.018186271,0.024578333,0.035157561,-0.208994567,0.193489224,-0.088185832,0.34817507,-1.574755424,2.794765772
-0.939989328,-0.341182947,0.003721528,-0.018186271,0.024578333,0.035157561,-0.208994567,0.193489224,-0.088185832,0.34817507,-1.574755424,2.794765772
-0.939989328,-0.341182947,0.003721528,-0.018186271,0.024578333,0.035157561,-0.208994567,0.193489224,-0.088185832,0.34817507,-1.574755424,2.794765772
-0.939989328,-0.341182947,0.003721528,-0.018186271,0.024578333,0.035157561,-0.208994567,0.193489224,-0.088185832,0.34817507,-1.574755424,2.794765772
-0.938436747,-0.345395923,-0.006140866,-0.026818871,0.093336016,0.025427699,-0.129432976,0.223640114,-0.147518128,0.352660653,-1.564252702,2.786579556
-0.938436747,-0.345395923,-0.006140866,-0.026818871,0.093336016,0.025427699,-0.129432976,0.223640114,-0.147518128,0.352660653,-1.564252702,2.786579556
-0.938436747,-0.345395923,-0.006140866,-0.026818871,0.093336016,0.025427699,-0.129432976,0.223640114,-0.147518128,0.352660653,-1.564252702,2.786579556
-0.938436747,-0.345395923,-0.006140866,-0.026818871,0.093336016,0.025427699,-0.129432976,0.223640114,-0.147518128,0.352660653,-1.564252702,2.786579556
-0.938436747,-0.345395923,-0.006140866,-0.026818871,0.093336016,0.025427699,-0.129432976,0.223640114,-0.147518128,0.352660653,-1.564252702,2.786579556
-0.938436747,-0.345395923,-0.006140866,-0.026818871,0.093336016,0.025427699,-0.129432976,0.223640114,-0.147518128,0.352660653,-1.564252702,2.786579556
-0.938436747,-0.345395923,-0.006140866,-0.026818871,0.093336016,0.025427699,-0.129432976,0.223640114,-0.147518128,0.352660653,-1.564252702,2.786579556
-0.938436747,-0.345395923,-0.006140866,-0.026818871,0.093336016,0.025427699,-0.129432976,0.223640114,-0.147518128,0.352660653,-1.564252702,2.786579556
-0.938436747,-0.345395923,-0.006140866,-0.026818871,0.093336016,0.025427699,-0.129432976,0.223640114,-0.147518128,0.352660653,-1.564252702,2.786579556
-0.938436747,-0.345395923,-0.006140866,-0.026818871,0.093336016,0.025427699,-0.129432976,0.223640114,-0.147518128,0.352660653,-1.564252702,2.786579556
-0.938436747,-0.345395923,-0.006140866,-0.026818871,0.093336016,0.025427699,-0.129432976,0.223640114,-0.147518128,0.352660653,-1.564252702,2.786579556
-0.938436747,-0.345395923,-0.006140866,-0.026818871,0.093336016,0.025427699,-0.129432976,0.223640114,-0.147518128,0.352660653,-1.564252702,2.786579556
-0.937446535,-0.347780108,-0.015580672,-0.02314049,0.073503166,0.009752035,0.135527238,0.291717559,0.039270602,0.355202357,-1.554177526,2.787447422
-0.937446535,-0.347780108,-0.015580672,-0.02314049,0.073503166,0.009752035,0.135527238,0.291717559,0.039270602,0.355202357,-1.554177526,2.787447422
-0.937446535,-0.347780108,-0.015580672,-0.02314049,0.073503166,0.009752035,0.135527238,0.291717559,0.039270602,0.355202357,-1.554177526,2.787447422
-0.937446535,-0.347780108,-0.015580672,-0.02314049,0.073503166,0.009752035,0.135527238,0.291717559,0.039270602,0.355202357,-1.554177526,2.787447422
-0.937446535,-0.347780108,-0.015580672,-0.02314049,0.073503166,0.009752035,0.135527238,0.291717559,0.039270602,0.355202357,-1.554177526,2.787447422
-0.937446535,-0.347780108,-0.015580672,-0.02314049,0.073503166,0.009752035,0.135527238,0.291717559,0.039270602,0.355202357,-1.554177526,2.787447422
-0.937446535,-0.347780108,-0.015580672,-0.02314049,0.073503166,0.009752035,0.135527238,0.291717559,0.039270602,0.355202357,-1.554177526,2.787447422
-0.937446535,-0.347780108,-0.015580672,-0.02314049,0.073503166,0.009752035,0.135527238,0.291717559,0.039270602,0.355202357,-1.554177526,2.787447422
-0.937446535,-0.347780108,-0.015580672,-0.02314049,0.073503166,0.009752035,0.135527238,0.291717559,0.039270602,0.355202357,-1.554177526,2.787447422
-0.937446535,-0.347780108,-0.015580672,-0.02314049,0.073503166,0.009752035,0.135527238,0.291717559,0.039270602,0.355202357,-1.554177526,2.787447422
-0.937446535,-0.347780108,-0.015580672,-0.02314049,0.073503166,0.009752035,0.135527238,0.291717559,0.039270602,0.355202357,-1.554177526,2.787447422
-0.937446535,-0.347780108,-0.015580672,-0.02314049,0.073503166,0.009752035,0.135527238,0.291717559,0.039270602,0.355202357,-1.554177526,2.787447422
-0.937446535,-0.347780108,-0.015580672,-0.02314049,0.073503166,0.009752035,0.135527238,0.291717559,0.039270602,0.355202357,-1.554177526,2.787447422
-0.937446535,-0.347780108,-0.015580672,-0.02314049,0.073503166,0.009752035,0.135527238,0.291717559,0.039270602,0.355202357,-1.554177526,2.787447422
-0.937446535,-0.347780108,-0.015580672,-0.02314049,0.073503166,0.009752035,0.135527238,0.291717559,0.039270602,0.355202357,-1.554177526,2.787447422
-0.937446535,-0.347780108,-0.015580672,-0.02314049,0.073503166,0.009752035,0.135527238,0.291717559,0.039270602,0.355202357,-1.554177526,2.787447422
-0.937446535,-0.347780108,-0.015580672,-0.02314049,0.073503166,0.009752035,0.135527238,0.291717559,0.039270602,0.355202357,-1.554177526,2.787447422
-0.938887179,-0.343293637,-0.025300656,-0.014284194,-0.026716977,0.018755019,-0.176061183,0.257417172,0.200468913,0.350421396,-1.543855353,2.789175619
-0.938887179,-0.343293637,-0.025300656,-0.014284194,-0.026716977,0.018755019,-0.176061183,0.257417172,0.200468913,0.350421396,-1.543855353,2.789175619
-0.938887179,-0.343293637,-0.025300656,-0.014284194,-0.026716977,0.018755019,-0.176061183,0.257417172,0.200468913,0.350421396,-1.543855353,2.789175619
-0.938887179,-0.343293637,-0.025300656,-0.014284194,-0.026716977,0.018755019,-0.176061183,0.257417172,0.200468913,0.350421396,-1.543855353,2.789175619
-0.938887179,-0.343293637,-0.025300656,-0.014284194,-0.026716977,0.018755019,-0.176061183,0.257417172,0.200468913,0.350421396,-1.543855353,2.789175619
-0.938887179,-0.343293637,-0.025300656,-0.014284194,-0.026716977,0.018755019,-0.176061183,0.257417172,0.200468913,0.350421396,-1.543855353,2.789175619
-0.938887179,-0.343293637,-0.025300656,-0.014284194,-0.026716977,0.018755019,-0.176061183,0.257417172,0.200468913,0.350421396,-1.543855353,2.789175619
-0.938887179,-0.343293637,-0.025300656,-0.014284194,-0.026716977,0.018755019,-0.176061183,0.257417172,0.200468913,0.350421396,-1.543855353,2.789175619
-0.938887179,-0.343293637,-0.025300656,-0.014284194,-0.026716977,0.018755019,-0.176061183,0.257417172,0.200468913,0.350421396,-1.543855353,2.789175619
-0.938887179,-0.343293637,-0.025300656,-0.014284194,-0.026716977,0.018755019,-0.176061183,0.257417172,0.200468913,0.350421396,-1.543855353,2.789175619
-0.938887179,-0.343293637,-0.025300656,-0.014284194,-0.026716977,0.018755019,-0.176061183,0.257417172,0.200468913,0.350421396,-1.543855353,2.789175619
-0.938887179,-0.343293637,-0.025300656,-0.014284194,-0.026716977,0.018755019,-0.176061183,0.257417172,0.200468913,0.350421396,-1.543855353,2.789175619
-0.938887179,-0.343293637,-0.025300656,-0.014284194,-0.026716977,0.018755019,-0.176061183,0.257417172,0.200468913,0.350421396,-1.543855353,2.789175619
-0.938887179,-0.343293637,-0.025300656,-0.014284194,-0.026716977,0.018755019,-0.176061183,0.257417172,0.200468913,0.350421396,-1.543855353,2.789175619
-0.938887179,-0.343293637,-0.025300656,-0.014284194,-0.026716977,0.018755019,-0.176061183,0.257417172,0.200468913,0.350421396,-1.543855353,2.789175619
-0.956317067,-0.29157111,-0.021064643,-0.019498289,-0.059396476,-0.009666145,-0.482272565,0.323077619,0.143104747,0.295868918,-1.548773048,2.778559425
-0.956317067,-0.29157111,-0.021064643,-0.019498289,-0.059396476,-0.009666145,-0.482272565,0.323077619,0.143104747,0.295868918,-1.548773048,2.778559425
-0.956317067,-0.29157111,-0.021064643,-0.019498289,-0.059396476,-0.009666145,-0.482272565,0.323077619,0.143104747,0.295868918,-1.548773048,2.778559425
-0.956317067,-0.29157111,-0.021064643,-0.019498289,-0.059396476,-0.009666145,-0.482272565,0.323077619,0.143104747,0.295868918,-1.548773048,2.778559425
-0.956317067,-0.29157111,-0.021064643,-0.019498289,-0.059396476,-0.009666145,-0.482272565,0.323077619,0.143104747,0.295868918,-1.548773048,2.778559425
-0.956317067,-0.29157111,-0.021064643,-0.019498289,-0.059396476,-0.009666145,-0.482272565,0.323077619,0.143104747,0.295868918,-1.548773048,2.778559425
-0.956317067,-0.29157111,-0.021064643,-0.019498289,-0.059396476,-0.009666145,-0.482272565,0.323077619,0.143104747,0.295868918,-1.548773048,2.778559425
-0.956317067,-0.29157111,-0.021064643,-0.019498289,-0.059396476,-0.009666145,-0.482272565,0.323077619,0.143104747,0.295868918,-1.548773048,2.778559425
-0.956317067,-0.29157111,-0.021064643,-0.019498289,-0.059396476,-0.009666145,-0.482272565,0.323077619,0.143104747,0.295868918,-1.548773048,2.778559425
-0.956317067,-0.29157111,-0.021064643,-0.019498289,-0.059396476,-0.009666145,-0.482272565,0.323077619,0.143104747,0.295868918,-1.548773048,2.778559425
-0.956317067,-0.29157111,-0.021064643,-0.019498289,-0.059396476,-0.009666145,-0.482272565,0.323077619,0.143104747,0.295868918,-1.548773048,2.778559425
-0.956317067,-0.29157111,-0.021064643,-0.019498289,-0.059396476,-0.009666145,-0.482272565,0.323077619,0.143104747,0.295868918,-1.548773048,2.778559425
-0.956317067,-0.29157111,-0.021064643,-0.019498289,-0.059396476,-0.009666145,-0.482272565,0.323077619,0.143104747,0.295868918,-1.548773048,2.778559425
-0.956317067,-0.29157111,-0.021064643,-0.019498289,-0.059396476,-0.009666145,-0.482272565,0.323077619,0.143104747,0.295868918,-1.548773048,2.778559425
-0.956317067,-0.29157111,-0.021064643,-0.019498289,-0.059396476,-0.009666145,-0.482272565,0.323077619,0.143104747,0.295868918,-1.548773048,2.778559425
-0.956317067,-0.29157111,-0.021064643,-0.019498289,-0.059396476,-0.009666145,-0.482272565,0.323077619,0.143104747,0.295868918,-1.548773048,2.778559425
-0.956317067,-0.29157111,-0.021064643,-0.019498289,-0.059396476,-0.009666145,-0.482272565,0.323077619,0.143104747,0.295868918,-1.548773048,2.778559425
-0.956317067,-0.29157111,-0.021064643,-0.019498289,-0.059396476,-0.009666145,-0.482272565,0.323077619,0.143104747,0.295868918,-1.548773048,2.778559425
-0.956317067,-0.29157111,-0.021064643,-0.019498289,-0.059396476,-0.009666145,-0.482272565,0.323077619,0.143104747,0.295868918,-1.548773048,2.778559425
-0.956317067,-0.29157111,-0.021064643,-0.019498289,-0.059396476,-0.009666145,-0.482272565,0.323077619,0.143104747,0.295868918,-1.548773048,2.778559425
-0.956317067,-0.29157111,-0.021064643,-0.019498289,-0.059396476,-0.009666145,-0.482272565,0.323077619,0.143104747,0.295868918,-1.548773048,2.778559425
-0.956317067,-0.29157111,-0.021064643,-0.019498289,-0.059396476,-0.009666145,-0.482272565,0.323077619,0.143104747,0.295868918,-1.548773048,2.778559425
-0.956317067,-0.29157111,-0.021064643,-0.019498289,-0.059396476,-0.009666145,-0.482272565,0.323077619,0.143104747,0.295868918,-1.548773048,2.778559425
-0.956317067,-0.29157111,-0.021064643,-0.019498289,-0.059396476,-0.009666145,-0.482272565,0.323077619,0.143104747,0.295868918,-1.548773048,2.778559425
-0.956317067,-0.29157111,-0.021064643,-0.019498289,-0.059396476,-0.009666145,-0.482272565,0.323077619,0.143104747,0.295868918,-1.548773048,2.778559425
-0.956317067,-0.29157111,-0.021064643,-0.019498289,-0.059396476,-0.009666145,-0.482272565,0.323077619,0.143104747,0.295868918,-1.548773048,2.778559425
-0.956317067,-0.29157111,-0.021064643,-0.019498289,-0.059396476,-0.009666145,-0.482272565,0.323077619,0.143104747,0.295868918,-1.548773048,2.778559425
-0.949208796,-0.313472003,-0.027158221,-0.013712883,0.030619621,-0.069505811,-0.20596604,0.326088011,-0.033233695,0.318847117,-1.542192701,2.768435258
-0.949208796,-0.313472003,-0.027158221,-0.013712883,0.030619621,-0.069505811,-0.20596604,0.326088011,-0.033233695,0.318847117,-1.542192701,2.768435258
-0.949208796,-0.313472003,-0.027158221,-0.013712883,0.030619621,-0.069505811,-0.20596604,0.326088011,-0.033233695,0.318847117,-1.542192701,2.768435258
-0.949208796,-0.313472003,-0.027158221,-0.013712883,0.030619621,-0.069505811,-0.20596604,0.326088011,-0.033233695,0.318847117,-1.542192701,2.768435258
-0.949208796,-0.313472003,-0.027158221,-0.013712883,0.030619621,-0.069505811,-0.20596604,0.326088011,-0.033233695,0.318847117,-1.542192701,2.768435258
-0.949208796,-0.313472003,-0.027158221,-0.013712883,0.030619621,-0.069505811,-0.20596604,0.326088011,-0.033233695,0.318847117,-1.542192701,2.768435258
-0.949208796,-0.313472003,-0.027158221,-0.013712883,0.030619621,-0.069505811,-0.20596604,0.326088011,-0.033233695,0.318847117,-1.542192701,2.768435258
-0.949208796,-0.313472003,-0.027158221,-0.013712883,0.030619621,-0.069505811,-0.20596604,0.326088011,-0.033233695,0.318847117,-1.542192701,2.768435258
-0.949208796,-0.313472003,-0.027158221,-0.013712883,0.030619621,-0.069505811,-0.20596604,0.326088011,-0.033233695,0.318847117,-1.542192701,2.768435258
-0.949208796,-0.313472003,-0.027158221,-0.013712883,0.030619621,-0.069505811,-0.20596604,0.326088011,-0.033233695,0.318847117,-1.542192701,2.768435258
-0.949208796,-0.313472003,-0.027158221,-0.013712883,0.030619621,-0.069505811,-0.20596604,0.326088011,-0.033233695,0.318847117,-1.542192701,2.768435258
-0.949208796,-0.313472003,-0.027158221,-0.013712883,0.030619621,-0.069505811,-0.20596604,0.326088011,-0.033233695,0.318847117,-1.542192701,2.768435258
-0.949208796,-0.313472003,-0.027158221,-0.013712883,0.030619621,-0.069505811,-0.20596604,0.326088011,-0.033233695,0.318847117,-1.542192701,2.768435258
-0.949208796,-0.313472003,-0.027158221,-0.013712883,0.030619621,-0.069505811,-0.20596604,0.326088011,-0.033233695,0.318847117,-1.542192701,2.768435258
-0.949208796,-0.313472003,-0.027158221,-0.013712883,0.030619621,-0.069505811,-0.20596604,0.326088011,-0.033233695,0.318847117,-1.542192701,2.768435258
-0.949208796,-0.313472003,-0.027158221,-0.013712883,0.030619621,-0.069505811,-0.20596604,0.326088011,-0.033233695,0.318847117,-1.542192701,2.768435258
-0.949208796,-0.313472003,-0.027158221,-0.013712883,0.030619621,-0.069505811,-0.20596604,0.326088011,-0.033233695,0.318847117,-1.542192701,2.768435258
-0.949208796,-0.313472003,-0.027158221,-0.013712883,0.030619621,-0.069505811,-0.20596604,0.326088011,-0.033233695,0.318847117,-1.542192701,2.768435258
0.341858953,-0.888962626,0.304757923,-0.249711156,-0.161818326,0.237737179,-0.931550264,-2.657205105,-4.435431957,1.095075099,2.298880169,-0.62355756
0.341858953,-0.888962626,0.304757923,-0.249711156,-0.161818326,0.237737179,-0.931550264,-2.657205105,-4.435431957,1.095075099,2.298880169,-0.62355756
0.341858953,-0.888962626,0.304757923,-0.249711156,-0.161818326,0.237737179,-0.931550264,-2.657205105,-4.435431957,1.095075099,2.298880169,-0.62355756
0.341858953,-0.888962626,0.304757923,-0.249711156,-0.161818326,0.237737179,-0.931550264,-2.657205105,-4.435431957,1.095075099,2.298880169,-0.62355756
0.341858953,-0.888962626,0.304757923,-0.249711156,-0.161818326,0.237737179,-0.931550264,-2.657205105,-4.435431957,1.095075099,2.298880169,-0.62355756
0.341858953,-0.888962626,0.304757923,-0.249711156,-0.161818326,0.237737179,-0.931550264,-2.657205105,-4.435431957,1.095075099,2.298880169,-0.62355756
0.341858953,-0.888962626,0.304757923,-0.249711156,-0.161818326,0.237737179,-0.931550264,-2.657205105,-4.435431957,1.095075099,2.298880169,-0.62355756
0.341858953,-0.888962626,0.304757923,-0.249711156,-0.161818326,0.237737179,-0.931550264,-2.657205105,-4.435431957,1.095075099,2.298880169,-0.62355756
0.341858953,-0.888962626,0.304757923,-0.249711156,-0.161818326,0.237737179,-0.931550264,-2.657205105,-4.435431957,1.095075099,2.298880169,-0.62355756
0.524978936,-0.82256192,0.218606502,-0.370270133,-0.02890873,0.11472106,-1.249815226,-3.0971632,-4.348331451,0.965901468,1.965368792,-0.370775399
0.524978936,-0.82256192,0.218606502,-0.370270133,-0.02890873,0.11472106,-1.249815226,-3.0971632,-4.348331451,0.965901468,1.965368792,-0.370775399
0.524978936,-0.82256192,0.218606502,-0.370270133,-0.02890873,0.11472106,-1.249815226,-3.0971632,-4.348331451,0.965901468,1.965368792,-0.370775399
0.524978936,-0.82256192,0.218606502,-0.370270133,-0.02890873,0.11472106,-1.249815226,-3.0971632,-4.348331451,0.965901468,1.965368792,-0.370775399
0.524978936,-0.82256192,0.218606502,-0.370270133,-0.02890873,0.11472106,-1.249815226,-3.0971632,-4.348331451,0.965901468,1.965368792,-0.370775399
0.524978936,-0.82256192,0.218606502,-0.370270133,-0.02890873,0.11472106,-1.249815226,-3.0971632,-4.348331451,0.965901468,1.965368792,-0.370775399
0.524978936,-0.82256192,0.218606502,-0.370270133,-0.02890873,0.11472106,-1.249815226,-3.0971632,-4.348331451,0.965901468,1.965368792,-0.370775399
0.524978936,-0.82256192,0.218606502,-0.370270133,-0.02890873,0.11472106,-1.249815226,-3.0971632,-4.348331451,0.965901468,1.965368792,-0.370775399
0.524978936,-0.82256192,0.218606502,-0.370270133,-0.02890873,0.11472106,-1.249815226,-3.0971632,-4.348331451,0.965901468,1.965368792,-0.370775399
0.524978936,-0.82256192,0.218606502,-0.370270133,-0.02890873,0.11472106,-1.249815226,-3.0971632,-4.348331451,0.965901468,1.965368792,-0.370775399
0.524978936,-0.82256192,0.218606502,-0.370270133,-0.02890873,0.11472106,-1.249815226,-3.0971632,-4.348331451,0.965901468,1.965368792,-0.370775399
0.524978936,-0.82256192,0.218606502,-0.370270133,-0.02890873,0.11472106,-1.249815226,-3.0971632,-4.348331451,0.965901468,1.965368792,-0.370775399
0.674005449,-0.730671227,0.108793698,-0.486826003,0.293903887,-0.251677513,-0.974462032,-3.265845299,-3.673495531,0.819304605,1.730829671,-0.232676071
0.674005449,-0.730671227,0.108793698,-0.486826003,0.293903887,-0.251677513,-0.974462032,-3.265845299,-3.673495531,0.819304605,1.730829671,-0.232676071
0.674005449,-0.730671227,0.108793698,-0.486826003,0.293903887,-0.251677513,-0.974462032,-3.265845299,-3.673495531,0.819304605,1.730829671,-0.232676071
0.674005449,-0.730671227,0.108793698,-0.486826003,0.293903887,-0.251677513,-0.974462032,-3.265845299,-3.673495531,0.819304605,1.730829671,-0.232676071
0.674005449,-0.730671227,0.108793698,-0.486826003,0.293903887,-0.251677513,-0.974462032,-3.265845299,-3.673495531,0.819304605,1.730829671,-0.232676071
0.674005449,-0.730671227,0.108793698,-0.486826003,0.293903887,-0.251677513,-0.974462032,-3.265845299,-3.673495531,0.819304605,1.730829671,-0.232676071
0.674005449,-0.730671227,0.108793698,-0.486826003,0.293903887,-0.251677513,-0.974462032,-3.265845299,-3.673495531,0.819304605,1.730829671,-0.232676071
0.674005449,-0.730671227,0.108793698,-0.486826003,0.293903887,-0.251677513,-0.974462032,-3.265845299,-3.673495531,0.819304605,1.730829671,-0.232676071
0.674005449,-0.730671227,0.108793698,-0.486826003,0.293903887,-0.251677513,-0.974462032,-3.265845299,-3.673495531,0.819304605,1.730829671,-0.232676071
0.765913606,-0.642943442,-3.98E-05,-0.555952728,0.341094136,-0.009222567,-0.78355962,-2.676985264,-2.250013351,0.698335146,1.570744376,-0.178245693
0.765913606,-0.642943442,-3.98E-05,-0.555952728,0.341094136,-0.009222567,-0.78355962,-2.676985264,-2.250013351,0.698335146,1.570744376,-0.178245693
0.765913606,-0.642943442,-3.98E-05,-0.555952728,0.341094136,-0.009222567,-0.78355962,-2.676985264,-2.250013351,0.698335146,1.570744376,-0.178245693
0.765913606,-0.642943442,-3.98E-05,-0.555952728,0.341094136,-0.009222567,-0.78355962,-2.676985264,-2.250013351,0.698335146,1.570744376,-0.178245693
0.765913606,-0.642943442,-3.98E-05,-0.555952728,0.341094136,-0.009222567,-0.78355962,-2.676985264,-2.250013351,0.698335146,1.570744376,-0.178245693
0.765913606,-0.642943442,-3.98E-05,-0.555952728,0.341094136,-0.009222567,-0.78355962,-2.676985264,-2.250013351,0.698335146,1.570744376,-0.178245693
0.798571467,-0.594300628,-0.09534239,-0.465014517,0.309480309,-0.058222532,-0.307347298,-2.058557272,-1.068309903,0.636395768,1.451967614,-0.136319356
0.798571467,-0.594300628,-0.09534239,-0.465014517,0.309480309,-0.058222532,-0.307347298,-2.058557272,-1.068309903,0.636395768,1.451967614,-0.136319356
0.798571467,-0.594300628,-0.09534239,-0.465014517,0.309480309,-0.058222532,-0.307347298,-2.058557272,-1.068309903,0.636395768,1.451967614,-0.136319356
0.798571467,-0.594300628,-0.09534239,-0.465014517,0.309480309,-0.058222532,-0.307347298,-2.058557272,-1.068309903,0.636395768,1.451967614,-0.136319356
0.798571467,-0.594300628,-0.09534239,-0.465014517,0.309480309,-0.058222532,-0.307347298,-2.058557272,-1.068309903,0.636395768,1.451967614,-0.136319356
0.798571467,-0.594300628,-0.09534239,-0.465014517,0.309480309,-0.058222532,-0.307347298,-2.058557272,-1.068309903,0.636395768,1.451967614,-0.136319356
0.798571467,-0.594300628,-0.09534239,-0.465014517,0.309480309,-0.058222532,-0.307347298,-2.058557272,-1.068309903,0.636395768,1.451967614,-0.136319356
0.798571467,-0.594300628,-0.09534239,-0.465014517,0.309480309,-0.058222532,-0.307347298,-2.058557272,-1.068309903,0.636395768,1.451967614,-0.136319356
0.798571467,-0.594300628,-0.09534239,-0.465014517,0.309480309,-0.058222532,-0.307347298,-2.058557272,-1.068309903,0.636395768,1.451967614,-0.136319356
0.798571467,-0.594300628,-0.09534239,-0.465014517,0.309480309,-0.058222532,-0.307347298,-2.058557272,-1.068309903,0.636395768,1.451967614,-0.136319356
0.811675668,-0.568023622,-0.13613154,-0.400909305,0.278823972,0.010948002,0.830367804,-1.266234875,-0.666493177,0.604102435,1.404626213,-0.166596569
0.811675668,-0.568023622,-0.13613154,-0.400909305,0.278823972,0.010948002,0.830367804,-1.266234875,-0.666493177,0.604102435,1.404626213,-0.166596569
0.811675668,-0.568023622,-0.13613154,-0.400909305,0.278823972,0.010948002,0.830367804,-1.266234875,-0.666493177,0.604102435,1.404626213,-0.166596569
0.811675668,-0.568023622,-0.13613154,-0.400909305,0.278823972,0.010948002,0.830367804,-1.266234875,-0.666493177,0.604102435,1.404626213,-0.166596569
0.811675668,-0.568023622,-0.13613154,-0.400909305,0.278823972,0.010948002,0.830367804,-1.266234875,-0.666493177,0.604102435,1.404626213,-0.166596569
0.811675668,-0.568023622,-0.13613154,-0.400909305,0.278823972,0.010948002,0.830367804,-1.266234875,-0.666493177,0.604102435,1.404626213,-0.166596569
0.811675668,-0.568023622,-0.13613154,-0.400909305,0.278823972,0.010948002,0.830367804,-1.266234875,-0.666493177,0.604102435,1.404626213,-0.166596569
0.811675668,-0.568023622,-0.13613154,-0.400909305,0.278823972,0.010948002,0.830367804,-1.266234875,-0.666493177,0.604102435,1.404626213,-0.166596569
0.816799283,-0.552625775,-0.165660992,-0.257183433,0.025266945,-0.084934533,0.022934608,-0.81013304,-0.277339995,0.585511526,1.370693333,-0.186046022
0.816799283,-0.552625775,-0.165660992,-0.257183433,0.025266945,-0.084934533,0.022934608,-0.81013304,-0.277339995,0.585511526,1.370693333,-0.186046022
0.816799283,-0.552625775,-0.165660992,-0.257183433,0.025266945,-0.084934533,0.022934608,-0.81013304,-0.277339995,0.585511526,1.370693333,-0.186046022
0.816799283,-0.552625775,-0.165660992,-0.257183433,0.025266945,-0.084934533,0.022934608,-0.81013304,-0.277339995,0.585511526,1.370693333,-0.186046022
0.816799283,-0.552625775,-0.165660992,-0.257183433,0.025266945,-0.084934533,0.022934608,-0.81013304,-0.277339995,0.585511526,1.370693333,-0.186046022
0.816799283,-0.552625775,-0.165660992,-0.257183433,0.025266945,-0.084934533,0.022934608,-0.81013304,-0.277339995,0.585511526,1.370693333,-0.186046022
0.816799283,-0.552625775,-0.165660992,-0.257183433,0.025266945,-0.084934533,0.022934608,-0.81013304,-0.277339995,0.585511526,1.370693333,-0.186046022
0.816799283,-0.552625775,-0.165660992,-0.257183433,0.025266945,-0.084934533,0.022934608,-0.81013304,-0.277339995,0.585511526,1.370693333,-0.186046022
0.816799283,-0.552625775,-0.165660992,-0.257183433,0.025266945,-0.084934533,0.022934608,-0.81013304,-0.277339995,0.585511526,1.370693333,-0.186046022
0.816799283,-0.552625775,-0.165660992,-0.257183433,0.025266945,-0.084934533,0.022934608,-0.81013304,-0.277339995,0.585511526,1.370693333,-0.186046022
0.81567663,-0.55149287,-0.1747206,-0.19670397,0.088495493,-0.093025625,0.202328339,-0.214595437,-0.059161272,0.584152774,1.359781829,-0.192358222
0.81567663,-0.55149287,-0.1747206,-0.19670397,0.088495493,-0.093025625,0.202328339,-0.214595437,-0.059161272,0.584152774,1.359781829,-0.192358222
0.81567663,-0.55149287,-0.1747206,-0.19670397,0.088495493,-0.093025625,0.202328339,-0.214595437,-0.059161272,0.584152774,1.359781829,-0.192358222
0.81567663,-0.55149287,-0.1747206,-0.19670397,0.088495493,-0.093025625,0.202328339,-0.214595437,-0.059161272,0.584152774,1.359781829,-0.192358222
0.81567663,-0.55149287,-0.1747206,-0.19670397,0.088495493,-0.093025625,0.202328339,-0.214595437,-0.059161272,0.584152774,1.359781829,-0.192358222
0.81567663,-0.55149287,-0.1747206,-0.19670397,0.088495493,-0.093025625,0.202328339,-0.214595437,-0.059161272,0.584152774,1.359781829,-0.192358222
0.81567663,-0.55149287,-0.1747206,-0.19670397,0.088495493,-0.093025625,0.202328339,-0.214595437,-0.059161272,0.584152774,1.359781829,-0.192358222
0.81567663,-0.55149287,-0.1747206,-0.19670397,0.088495493,-0.093025625,0.202328339,-0.214595437,-0.059161272,0.584152774,1.359781829,-0.192358222
0.81567663,-0.55149287,-0.1747206,-0.19670397,0.088495493,-0.093025625,0.202328339,-0.214595437,-0.059161272,0.584152774,1.359781829,-0.192358222
0.81567663,-0.55149287,-0.1747206,-0.19670397,0.088495493,-0.093025625,0.202328339,-0.214595437,-0.059161272,0.584152774,1.359781829,-0.192358222
0.81567663,-0.55149287,-0.1747206,-0.19670397,0.088495493,-0.093025625,0.202328339,-0.214595437,-0.059161272,0.584152774,1.359781829,-0.192358222
0.814837873,-0.550697625,-0.181027979,-0.142642498,-0.03241688,-0.090426147,-0.341456443,-0.015736764,-0.062917605,0.583199804,1.352182457,-0.193525341
0.814837873,-0.550697625,-0.181027979,-0.142642498,-0.03241688,-0.090426147,-0.341456443,-0.015736764,-0.062917605,0.583199804,1.352182457,-0.193525341
0.814837873,-0.550697625,-0.181027979,-0.142642498,-0.03241688,-0.090426147,-0.341456443,-0.015736764,-0.062917605,0.583199804,1.352182457,-0.193525341
0.814837873,-0.550697625,-0.181027979,-0.142642498,-0.03241688,-0.090426147,-0.341456443,-0.015736764,-0.062917605,0.583199804,1.352182457,-0.193525341
0.814837873,-0.550697625,-0.181027979,-0.142642498,-0.03241688,-0.090426147,-0.341456443,-0.015736764,-0.062917605,0.583199804,1.352182457,-0.193525341
0.814837873,-0.550697625,-0.181027979,-0.142642498,-0.03241688,-0.090426147,-0.341456443,-0.015736764,-0.062917605,0.583199804,1.352182457,-0.193525341
0.814837873,-0.550697625,-0.181027979,-0.142642498,-0.03241688,-0.090426147,-0.341456443,-0.015736764,-0.062917605,0.583199804,1.352182457,-0.193525341
0.814837873,-0.550697625,-0.181027979,-0.142642498,-0.03241688,-0.090426147,-0.341456443,-0.015736764,-0.062917605,0.583199804,1.352182457,-0.193525341
0.814837873,-0.550697625,-0.181027979,-0.142642498,-0.03241688,-0.090426147,-0.341456443,-0.015736764,-0.062917605,0.583199804,1.352182457,-0.193525341
0.816466033,-0.545246959,-0.189970329,-0.065626919,-0.052958488,0.045652449,-1.189702034,0.398266166,0.045584261,0.576683698,1.342189892,-0.154677446
0.816466033,-0.545246959,-0.189970329,-0.065626919,-0.052958488,0.045652449,-1.189702034,0.398266166,0.045584261,0.576683698,1.342189892,-0.154677446
0.816114724,-0.537656426,-0.211854488,0.112641931,0.077069938,0.050568819,-0.982289076,-0.134415954,0.006420028,0.567655118,1.316813181,-0.100385005
0.816114724,-0.537656426,-0.211854488,0.112641931,0.077069938,0.050568819,-0.982289076,-0.134415954,0.006420028,0.567655118,1.316813181,-0.100385005
0.816114724,-0.537656426,-0.211854488,0.112641931,0.077069938,0.050568819,-0.982289076,-0.134415954,0.006420028,0.567655118,1.316813181,-0.100385005
0.816114724,-0.537656426,-0.211854488,0.112641931,0.077069938,0.050568819,-0.982289076,-0.134415954,0.006420028,0.567655118,1.316813181,-0.100385005
0.816114724,-0.537656426,-0.211854488,0.112641931,0.077069938,0.050568819,-0.982289076,-0.134415954,0.006420028,0.567655118,1.316813181,-0.100385005
0.813030362,-0.532925725,-0.234460756,-0.053920984,-0.009279966,-0.083242774,-0.705600321,0.035004575,0.100259118,0.562054434,1.290034941,-0.055455368
0.813030362,-0.532925725,-0.234460756,-0.053920984,-0.009279966,-0.083242774,-0.705600321,0.035004575,0.100259118,0.562054434,1.290034941,-0.055455368
0.813030362,-0.532925725,-0.234460756,-0.053920984,-0.009279966,-0.083242774,-0.705600321,0.035004575,0.100259118,0.562054434,1.290034941,-0.055455368
0.813030362,-0.532925725,-0.234460756,-0.053920984,-0.009279966,-0.083242774,-0.705600321,0.035004575,0.100259118,0.562054434,1.290034941,-0.055455368
0.813030362,-0.532925725,-0.234460756,-0.053920984,-0.009279966,-0.083242774,-0.705600321,0.035004575,0.100259118,0.562054434,1.290034941,-0.055455368
0.811443508,-0.536586165,-0.231591523,-0.045772851,0.003306866,-0.088599205,0.220684886,0.284867465,0.190992758,0.566386295,1.292780935,-0.046222452
0.811443508,-0.536586165,-0.231591523,-0.045772851,0.003306866,-0.088599205,0.220684886,0.284867465,0.190992758,0.566386295,1.292780935,-0.046222452
0.811443508,-0.536586165,-0.231591523,-0.045772851,0.003306866,-0.088599205,0.220684886,0.284867465,0.190992758,0.566386295,1.292780935,-0.046222452
0.81127578,-0.540973186,-0.221764266,-0.089642525,0.071994841,-0.038749933,-0.116128437,0.645290375,0.030617991,0.571593806,1.30396242,-0.035439104
0.81127578,-0.540973186,-0.221764266,-0.089642525,0.071994841,-0.038749933,-0.116128437,0.645290375,0.030617991,0.571593806,1.30396242,-0.035439104
0.81127578,-0.540973186,-0.221764266,-0.089642525,0.071994841,-0.038749933,-0.116128437,0.645290375,0.030617991,0.571593806,1.30396242,-0.035439104
0.81127578,-0.540973186,-0.221764266,-0.089642525,0.071994841,-0.038749933,-0.116128437,0.645290375,0.030617991,0.571593806,1.30396242,-0.035439104
0.81127578,-0.540973186,-0.221764266,-0.089642525,0.071994841,-0.038749933,-0.116128437,0.645290375,0.030617991,0.571593806,1.30396242,-0.035439104
0.81127578,-0.540973186,-0.221764266,-0.089642525,0.071994841,-0.038749933,-0.116128437,0.645290375,0.030617991,0.571593806,1.30396242,-0.035439104
0.81127578,-0.540973186,-0.221764266,-0.089642525,0.071994841,-0.038749933,-0.116128437,0.645290375,0.030617991,0.571593806,1.30396242,-0.035439104
0.81127578,-0.540973186,-0.221764266,-0.089642525,0.071994841,-0.038749933,-0.116128437,0.645290375,0.030617991,0.571593806,1.30396242,-0.035439104
0.81127578,-0.540973186,-0.221764266,-0.089642525,0.071994841,-0.038749933,-0.116128437,0.645290375,0.030617991,0.571593806,1.30396242,-0.035439104
0.81062609,-0.544480681,-0.215466917,-0.091663122,-0.077329755,0.006176531,-0.111778922,0.688101709,0.115295485,0.575769823,1.311000351,-0.02111329
0.81062609,-0.544480681,-0.215466917,-0.091663122,-0.077329755,0.006176531,-0.111778922,0.688101709,0.115295485,0.575769823,1.311000351,-0.02111329
0.81062609,-0.544480681,-0.215466917,-0.091663122,-0.077329755,0.006176531,-0.111778922,0.688101709,0.115295485,0.575769823,1.311000351,-0.02111329
0.81062609,-0.544480681,-0.215466917,-0.091663122,-0.077329755,0.006176531,-0.111778922,0.688101709,0.115295485,0.575769823,1.311000351,-0.02111329
0.81062609,-0.544480681,-0.215466917,-0.091663122,-0.077329755,0.006176531,-0.111778922,0.688101709,0.115295485,0.575769823,1.311000351,-0.02111329
0.81062609,-0.544480681,-0.215466917,-0.091663122,-0.077329755,0.006176531,-0.111778922,0.688101709,0.115295485,0.575769823,1.311000351,-0.02111329
0.809431136,-0.543526947,-0.222260505,-0.004957676,-0.027426124,-0.031722605,-0.547504544,0.422769517,-0.024429228,0.574633212,1.302812698,0.008056911
0.809431136,-0.543526947,-0.222260505,-0.004957676,-0.027426124,-0.031722605,-0.547504544,0.422769517,-0.024429228,0.574633212,1.302812698,0.008056911
0.809431136,-0.543526947,-0.222260505,-0.004957676,-0.027426124,-0.031722605,-0.547504544,0.422769517,-0.024429228,0.574633212,1.302812698,0.008056911
0.809431136,-0.543526947,-0.222260505,-0.004957676,-0.027426124,-0.031722605,-0.547504544,0.422769517,-0.024429228,0.574633212,1.302812698,0.008056911
0.809431136,-0.543526947,-0.222260505,-0.004957676,-0.027426124,-0.031722605,-0.547504544,0.422769517,-0.024429228,0.574633212,1.302812698,0.008056911
0.809431136,-0.543526947,-0.222260505,-0.004957676,-0.027426124,-0.031722605,-0.547504544,0.422769517,-0.024429228,0.574633212,1.302812698,0.008056911
0.767954588,-0.599122882,-0.226489156,-0.266841471,0.197405457,0.196123183,-0.21487543,-0.110416412,2.931751728,0.642405128,1.284001809,0.199127927
0.767954588,-0.599122882,-0.226489156,-0.266841471,0.197405457,0.196123183,-0.21487543,-0.110416412,2.931751728,0.642405128,1.284001809,0.199127927
0.767954588,-0.599122882,-0.226489156,-0.266841471,0.197405457,0.196123183,-0.21487543,-0.110416412,2.931751728,0.642405128,1.284001809,0.199127927
0.767954588,-0.599122882,-0.226489156,-0.266841471,0.197405457,0.196123183,-0.21487543,-0.110416412,2.931751728,0.642405128,1.284001809,0.199127927
0.767954588,-0.599122882,-0.226489156,-0.266841471,0.197405457,0.196123183,-0.21487543,-0.110416412,2.931751728,0.642405128,1.284001809,0.199127927
0.767954588,-0.599122882,-0.226489156,-0.266841471,0.197405457,0.196123183,-0.21487543,-0.110416412,2.931751728,0.642405128,1.284001809,0.199127927
0.694629908,-0.684610367,-0.220902368,-0.348011971,0.441126645,0.19859302,-0.614340603,0.538399458,3.172886372,0.754069049,1.262895512,0.249037596
0.694629908,-0.684610367,-0.220902368,-0.348011971,0.441126645,0.19859302,-0.614340603,0.538399458,3.172886372,0.754069049,1.262895512,0.249037596
0.694629908,-0.684610367,-0.220902368,-0.348011971,0.441126645,0.19859302,-0.614340603,0.538399458,3.172886372,0.754069049,1.262895512,0.249037596
0.694629908,-0.684610367,-0.220902368,-0.348011971,0.441126645,0.19859302,-0.614340603,0.538399458,3.172886372,0.754069049,1.262895512,0.249037596
0.694629908,-0.684610367,-0.220902368,-0.348011971,0.441126645,0.19859302,-0.614340603,0.538399458,3.172886372,0.754069049,1.262895512,0.249037596
0.694629908,-0.684610367,-0.220902368,-0.348011971,0.441126645,0.19859302,-0.614340603,0.538399458,3.172886372,0.754069049,1.262895512,0.249037596
0.694629908,-0.684610367,-0.220902368,-0.348011971,0.441126645,0.19859302,-0.614340603,0.538399458,3.172886372,0.754069049,1.262895512,0.249037596
0.694629908,-0.684610367,-0.220902368,-0.348011971,0.441126645,0.19859302,-0.614340603,0.538399458,3.172886372,0.754069049,1.262895512,0.249037596
0.694629908,-0.684610367,-0.220902368,-0.348011971,0.441126645,0.19859302,-0.614340603,0.538399458,3.172886372,0.754069049,1.262895512,0.249037596
0.694629908,-0.684610367,-0.220902368,-0.348011971,0.441126645,0.19859302,-0.614340603,0.538399458,3.172886372,0.754069049,1.262895512,0.249037596
0.581827283,-0.775443554,-0.245283425,-0.313090026,-0.479682446,0.062604189,-1.292769194,-0.080367446,4.510478497,0.887417294,1.171830848,0.383779564
0.581827283,-0.775443554,-0.245283425,-0.313090026,-0.479682446,0.062604189,-1.292769194,-0.080367446,4.510478497,0.887417294,1.171830848,0.383779564
0.581827283,-0.775443554,-0.245283425,-0.313090026,-0.479682446,0.062604189,-1.292769194,-0.080367446,4.510478497,0.887417294,1.171830848,0.383779564
0.581827283,-0.775443554,-0.245283425,-0.313090026,-0.479682446,0.062604189,-1.292769194,-0.080367446,4.510478497,0.887417294,1.171830848,0.383779564
0.581827283,-0.775443554,-0.245283425,-0.313090026,-0.479682446,0.062604189,-1.292769194,-0.080367446,4.510478497,0.887417294,1.171830848,0.383779564
0.581827283,-0.775443554,-0.245283425,-0.313090026,-0.479682446,0.062604189,-1.292769194,-0.080367446,4.510478497,0.887417294,1.171830848,0.383779564
0.581827283,-0.775443554,-0.245283425,-0.313090026,-0.479682446,0.062604189,-1.292769194,-0.080367446,4.510478497,0.887417294,1.171830848,0.383779564
0.581827283,-0.775443554,-0.245283425,-0.313090026,-0.479682446,0.062604189,-1.292769194,-0.080367446,4.510478497,0.887417294,1.171830848,0.383779564
0.581827283,-0.775443554,-0.245283425,-0.313090026,-0.479682446,0.062604189,-1.292769194,-0.080367446,4.510478497,0.887417294,1.171830848,0.383779564
0.446323931,-0.841791272,-0.303615093,0.078456014,0.286372125,0.100245118,-2.429751158,-0.316000402,3.615653515,1.000593032,0.973443788,0.61294092
0.446323931,-0.841791272,-0.303615093,0.078456014,0.286372125,0.100245118,-2.429751158,-0.316000402,3.615653515,1.000593032,0.973443788,0.61294092
0.446323931,-0.841791272,-0.303615093,0.078456014,0.286372125,0.100245118,-2.429751158,-0.316000402,3.615653515,1.000593032,0.973443788,0.61294092
0.446323931,-0.841791272,-0.303615093,0.078456014,0.286372125,0.100245118,-2.429751158,-0.316000402,3.615653515,1.000593032,0.973443788,0.61294092
0.446323931,-0.841791272,-0.303615093,0.078456014,0.286372125,0.100245118,-2.429751158,-0.316000402,3.615653515,1.000593032,0.973443788,0.61294092
0.446323931,-0.841791272,-0.303615093,0.078456014,0.286372125,0.100245118,-2.429751158,-0.316000402,3.615653515,1.000593032,0.973443788,0.61294092
0.446323931,-0.841791272,-0.303615093,0.078456014,0.286372125,0.100245118,-2.429751158,-0.316000402,3.615653515,1.000593032,0.973443788,0.61294092
0.446323931,-0.841791272,-0.303615093,0.078456014,0.286372125,0.100245118,-2.429751158,-0.316000402,3.615653515,1.000593032,0.973443788,0.61294092
0.446323931,-0.841791272,-0.303615093,0.078456014,0.286372125,0.100245118,-2.429751158,-0.316000402,3.615653515,1.000593032,0.973443788,0.61294092
0.446323931,-0.841791272,-0.303615093,0.078456014,0.286372125,0.100245118,-2.429751158,-0.316000402,3.615653515,1.000593032,0.973443788,0.61294092
0.446323931,-0.841791272,-0.303615093,0.078456014,0.286372125,0.100245118,-2.429751158,-0.316000402,3.615653515,1.000593032,0.973443788,0.61294092
0.446323931,-0.841791272,-0.303615093,0.078456014,0.286372125,0.100245118,-2.429751158,-0.316000402,3.615653515,1.000593032,0.973443788,0.61294092
0.446323931,-0.841791272,-0.303615093,0.078456014,0.286372125,0.100245118,-2.429751158,-0.316000402,3.615653515,1.000593032,0.973443788,0.61294092
0.446323931,-0.841791272,-0.303615093,0.078456014,0.286372125,0.100245118,-2.429751158,-0.316000402,3.615653515,1.000593032,0.973443788,0.61294092
0.446323931,-0.841791272,-0.303615093,0.078456014,0.286372125,0.100245118,-2.429751158,-0.316000402,3.615653515,1.000593032,0.973443788,0.61294092
0.324731439,-0.850670934,-0.413410813,-0.013086051,0.041177511,0.109592617,-2.548152208,-1.323113203,3.695240974,1.017260205,0.665832594,0.943157514
0.324731439,-0.850670934,-0.413410813,-0.013086051,0.041177511,0.109592617,-2.548152208,-1.323113203,3.695240974,1.017260205,0.665832594,0.943157514
0.324731439,-0.850670934,-0.413410813,-0.013086051,0.041177511,0.109592617,-2.548152208,-1.323113203,3.695240974,1.017260205,0.665832594,0.943157514
0.324731439,-0.850670934,-0.413410813,-0.013086051,0.041177511,0.109592617,-2.548152208,-1.323113203,3.695240974,1.017260205,0.665832594,0.943157514
0.324731439,-0.850670934,-0.413410813,-0.013086051,0.041177511,0.109592617,-2.548152208,-1.323113203,3.695240974,1.017260205,0.665832594,0.943157514
0.324731439,-0.850670934,-0.413410813,-0.013086051,0.041177511,0.109592617,-2.548152208,-1.323113203,3.695240974,1.017260205,0.665832594,0.943157514
0.155364811,-0.851044595,-0.501582146,-0.026122913,-0.247358501,0.142404914,-2.815680742,-0.884652376,3.765320063,1.017971454,0.300377109,1.304633868
0.155364811,-0.851044595,-0.501582146,-0.026122913,-0.247358501,0.142404914,-2.815680742,-0.884652376,3.765320063,1.017971454,0.300377109,1.304633868
0.155364811,-0.851044595,-0.501582146,-0.026122913,-0.247358501,0.142404914,-2.815680742,-0.884652376,3.765320063,1.017971454,0.300377109,1.304633868
0.155364811,-0.851044595,-0.501582146,-0.026122913,-0.247358501,0.142404914,-2.815680742,-0.884652376,3.765320063,1.017971454,0.300377109,1.304633868
0.155364811,-0.851044595,-0.501582146,-0.026122913,-0.247358501,0.142404914,-2.815680742,-0.884652376,3.765320063,1.017971454,0.300377109,1.304633868
0.155364811,-0.851044595,-0.501582146,-0.026122913,-0.247358501,0.142404914,-2.815680742,-0.884652376,3.765320063,1.017971454,0.300377109,1.304633868
0.155364811,-0.851044595,-0.501582146,-0.026122913,-0.247358501,0.142404914,-2.815680742,-0.884652376,3.765320063,1.017971454,0.300377109,1.304633868
0.155364811,-0.851044595,-0.501582146,-0.026122913,-0.247358501,0.142404914,-2.815680742,-0.884652376,3.765320063,1.017971454,0.300377109,1.304633868
0.155364811,-0.851044595,-0.501582146,-0.026122913,-0.247358501,0.142404914,-2.815680742,-0.884652376,3.765320063,1.017971454,0.300377109,1.304633868
-0.559697509,-0.400208771,-0.725652516,0.079015791,0.171907336,0.181996703,-2.821484566,-2.098321438,2.144113064,0.411744658,-0.656995789,1.970706933
-0.559697509,-0.400208771,-0.725652516,0.079015791,0.171907336,0.181996703,-2.821484566,-2.098321438,2.144113064,0.411744658,-0.656995789,1.970706933
-0.559697509,-0.400208771,-0.725652516,0.079015791,0.171907336,0.181996703,-2.821484566,-2.098321438,2.144113064,0.411744658,-0.656995789,1.970706933
-0.648095191,-0.354328603,-0.674109697,0.098718524,0.195073128,-0.007317781,1.422448993,-2.463191032,1.381310344,0.362195993,-0.765725579,2.007841411
-0.648095191,-0.354328603,-0.674109697,0.098718524,0.195073128,-0.007317781,1.422448993,-2.463191032,1.381310344,0.362195993,-0.765725579,2.007841411
-0.648095191,-0.354328603,-0.674109697,0.098718524,0.195073128,-0.007317781,1.422448993,-2.463191032,1.381310344,0.362195993,-0.765725579,2.007841411
-0.648095191,-0.354328603,-0.674109697,0.098718524,0.195073128,-0.007317781,1.422448993,-2.463191032,1.381310344,0.362195993,-0.765725579,2.007841411
-0.648095191,-0.354328603,-0.674109697,0.098718524,0.195073128,-0.007317781,1.422448993,-2.463191032,1.381310344,0.362195993,-0.765725579,2.007841411
-0.648095191,-0.354328603,-0.674109697,0.098718524,0.195073128,-0.007317781,1.422448993,-2.463191032,1.381310344,0.362195993,-0.765725579,2.007841411
-0.723708153,-0.348147362,-0.595852137,-0.175460756,-0.04299587,-0.12981075,1.843661904,-2.068460941,1.851787567,0.355594092,-0.881989503,2.107744567
-0.723708153,-0.348147362,-0.595852137,-0.175460756,-0.04299587,-0.12981075,1.843661904,-2.068460941,1.851787567,0.355594092,-0.881989503,2.107744567
-0.723708153,-0.348147362,-0.595852137,-0.175460756,-0.04299587,-0.12981075,1.843661904,-2.068460941,1.851787567,0.355594092,-0.881989503,2.107744567
-0.723708153,-0.348147362,-0.595852137,-0.175460756,-0.04299587,-0.12981075,1.843661904,-2.068460941,1.851787567,0.355594092,-0.881989503,2.107744567
-0.723708153,-0.348147362,-0.595852137,-0.175460756,-0.04299587,-0.12981075,1.843661904,-2.068460941,1.851787567,0.355594092,-0.881989503,2.107744567
-0.723708153,-0.348147362,-0.595852137,-0.175460756,-0.04299587,-0.12981075,1.843661904,-2.068460941,1.851787567,0.355594092,-0.881989503,2.107744567
-0.723708153,-0.348147362,-0.595852137,-0.175460756,-0.04299587,-0.12981075,1.843661904,-2.068460941,1.851787567,0.355594092,-0.881989503,2.107744567
-0.802167535,-0.334357083,-0.494704604,-0.203828454,-0.254082501,-0.09277463,1.362803221,-2.412456989,1.595585585,0.340922983,-1.018180708,2.215954128
-0.802167535,-0.334357083,-0.494704604,-0.203828454,-0.254082501,-0.09277463,1.362803221,-2.412456989,1.595585585,0.340922983,-1.018180708,2.215954128
-0.802167535,-0.334357083,-0.494704604,-0.203828454,-0.254082501,-0.09277463,1.362803221,-2.412456989,1.595585585,0.340922983,-1.018180708,2.215954128
-0.802167535,-0.334357083,-0.494704604,-0.203828454,-0.254082501,-0.09277463,1.362803221,-2.412456989,1.595585585,0.340922983,-1.018180708,2.215954128
-0.802167535,-0.334357083,-0.494704604,-0.203828454,-0.254082501,-0.09277463,1.362803221,-2.412456989,1.595585585,0.340922983,-1.018180708,2.215954128
-0.802167535,-0.334357083,-0.494704604,-0.203828454,-0.254082501,-0.09277463,1.362803221,-2.412456989,1.595585585,0.340922983,-1.018180708,2.215954128
-0.802167535,-0.334357083,-0.494704604,-0.203828454,-0.254082501,-0.09277463,1.362803221,-2.412456989,1.595585585,0.340922983,-1.018180708,2.215954128
-0.802167535,-0.334357083,-0.494704604,-0.203828454,-0.254082501,-0.09277463,1.362803221,-2.412456989,1.595585585,0.340922983,-1.018180708,2.215954128
-0.802167535,-0.334357083,-0.494704604,-0.203828454,-0.254082501,-0.09277463,1.362803221,-2.412456989,1.595585585,0.340922983,-1.018180708,2.215954128
-0.857905269,-0.310896009,-0.409074932,-0.177448392,-0.11934039,-0.117277741,1.870577455,-1.98495388,1.058512926,0.316135623,-1.125855958,2.291482034
-0.857905269,-0.310896009,-0.409074932,-0.177448392,-0.11934039,-0.117277741,1.870577455,-1.98495388,1.058512926,0.316135623,-1.125855958,2.291482034
-0.857905269,-0.310896009,-0.409074932,-0.177448392,-0.11934039,-0.117277741,1.870577455,-1.98495388,1.058512926,0.316135623,-1.125855958,2.291482034
-0.857905269,-0.310896009,-0.409074932,-0.177448392,-0.11934039,-0.117277741,1.870577455,-1.98495388,1.058512926,0.316135623,-1.125855958,2.291482034
-0.857905269,-0.310896009,-0.409074932,-0.177448392,-0.11934039,-0.117277741,1.870577455,-1.98495388,1.058512926,0.316135623,-1.125855958,2.291482034
-0.857905269,-0.310896009,-0.409074932,-0.177448392,-0.11934039,-0.117277741,1.870577455,-1.98495388,1.058512926,0.316135623,-1.125855958,2.291482034
-0.896763325,-0.311919034,-0.313881904,-0.254038095,-0.232483596,-0.125434995,2.054209709,-1.678410888,0.930009961,0.317212155,-1.234106861,2.39825747
-0.896763325,-0.311919034,-0.313881904,-0.254038095,-0.232483596,-0.125434995,2.054209709,-1.678410888,0.930009961,0.317212155,-1.234106861,2.39825747
-0.896763325,-0.311919034,-0.313881904,-0.254038095,-0.232483596,-0.125434995,2.054209709,-1.678410888,0.930009961,0.317212155,-1.234106861,2.39825747
-0.896763325,-0.311919034,-0.313881904,-0.254038095,-0.232483596,-0.125434995,2.054209709,-1.678410888,0.930009961,0.317212155,-1.234106861,2.39825747
-0.896763325,-0.311919034,-0.313881904,-0.254038095,-0.232483596,-0.125434995,2.054209709,-1.678410888,0.930009961,0.317212155,-1.234106861,2.39825747
-0.896763325,-0.311919034,-0.313881904,-0.254038095,-0.232483596,-0.125434995,2.054209709,-1.678410888,0.930009961,0.317212155,-1.234106861,2.39825747
-0.896763325,-0.311919034,-0.313881904,-0.254038095,-0.232483596,-0.125434995,2.054209709,-1.678410888,0.930009961,0.317212155,-1.234106861,2.39825747
-0.896763325,-0.311919034,-0.313881904,-0.254038095,-0.232483596,-0.125434995,2.054209709,-1.678410888,0.930009961,0.317212155,-1.234106861,2.39825747
-0.896763325,-0.311919034,-0.313881904,-0.254038095,-0.232483596,-0.125434995,2.054209709,-1.678410888,0.930009961,0.317212155,-1.234106861,2.39825747
-0.896763325,-0.311919034,-0.313881904,-0.254038095,-0.232483596,-0.125434995,2.054209709,-1.678410888,0.930009961,0.317212155,-1.234106861,2.39825747
-0.896763325,-0.311919034,-0.313881904,-0.254038095,-0.232483596,-0.125434995,2.054209709,-1.678410888,0.930009961,0.317212155,-1.234106861,2.39825747
-0.896763325,-0.311919034,-0.313881904,-0.254038095,-0.232483596,-0.125434995,2.054209709,-1.678410888,0.930009961,0.317212155,-1.234106861,2.39825747
-0.922420323,-0.304404497,-0.237652272,-0.207933903,-0.17639935,-0.225743353,2.828850508,-1.251886129,0.250220865,0.309313204,-1.318640189,2.47902425
-0.922420323,-0.304404497,-0.237652272,-0.207933903,-0.17639935,-0.225743353,2.828850508,-1.251886129,0.250220865,0.309313204,-1.318640189,2.47902425
-0.922420323,-0.304404497,-0.237652272,-0.207933903,-0.17639935,-0.225743353,2.828850508,-1.251886129,0.250220865,0.309313204,-1.318640189,2.47902425
-0.929922938,-0.337307155,-0.146515951,-0.151343644,0.085949749,-0.128037214,3.805540323,-0.820385873,-0.008012814,0.344054953,-1.414523903,2.659348019
-0.929922938,-0.337307155,-0.146515951,-0.151343644,0.085949749,-0.128037214,3.805540323,-0.820385873,-0.008012814,0.344054953,-1.414523903,2.659348019
-0.929922938,-0.337307155,-0.146515951,-0.151343644,0.085949749,-0.128037214,3.805540323,-0.820385873,-0.008012814,0.344054953,-1.414523903,2.659348019
-0.929922938,-0.337307155,-0.146515951,-0.151343644,0.085949749,-0.128037214,3.805540323,-0.820385873,-0.008012814,0.344054953,-1.414523903,2.659348019
-0.929922938,-0.337307155,-0.146515951,-0.151343644,0.085949749,-0.128037214,3.805540323,-0.820385873,-0.008012814,0.344054953,-1.414523903,2.659348019
-0.929922938,-0.337307155,-0.146515951,-0.151343644,0.085949749,-0.128037214,3.805540323,-0.820385873,-0.008012814,0.344054953,-1.414523903,2.659348019
-0.929922938,-0.337307155,-0.146515951,-0.151343644,0.085949749,-0.128037214,3.805540323,-0.820385873,-0.008012814,0.344054953,-1.414523903,2.659348019
-0.929922938,-0.337307155,-0.146515951,-0.151343644,0.085949749,-0.128037214,3.805540323,-0.820385873,-0.008012814,0.344054953,-1.414523903,2.659348019
-0.929922938,-0.337307155,-0.146515951,-0.151343644,0.085949749,-0.128037214,3.805540323,-0.820385873,-0.008012814,0.344054953,-1.414523903,2.659348019
-0.929922938,-0.337307155,-0.146515951,-0.151343644,0.085949749,-0.128037214,3.805540323,-0.820385873,-0.008012814,0.344054953,-1.414523903,2.659348019
-0.929922938,-0.337307155,-0.146515951,-0.151343644,0.085949749,-0.128037214,3.805540323,-0.820385873,-0.008012814,0.344054953,-1.414523903,2.659348019
-0.929922938,-0.337307155,-0.146515951,-0.151343644,0.085949749,-0.128037214,3.805540323,-0.820385873,-0.008012814,0.344054953,-1.414523903,2.659348019
-0.929922938,-0.337307155,-0.146515951,-0.151343644,0.085949749,-0.128037214,3.805540323,-0.820385873,-0.008012814,0.344054953,-1.414523903,2.659348019
-0.929922938,-0.337307155,-0.146515951,-0.151343644,0.085949749,-0.128037214,3.805540323,-0.820385873,-0.008012814,0.344054953,-1.414523903,2.659348019
-0.929922938,-0.337307155,-0.146515951,-0.151343644,0.085949749,-0.128037214,3.805540323,-0.820385873,-0.008012814,0.344054953,-1.414523903,2.659348019
-0.930021524,-0.355933279,-0.091495328,-0.012268245,-0.467674553,-0.029783189,1.017591357,-0.561704934,-0.21151273,0.363912563,-1.472732092,2.743440513
-0.930021524,-0.355933279,-0.091495328,-0.012268245,-0.467674553,-0.029783189,1.017591357,-0.561704934,-0.21151273,0.363912563,-1.472732092,2.743440513
-0.930021524,-0.355933279,-0.091495328,-0.012268245,-0.467674553,-0.029783189,1.017591357,-0.561704934,-0.21151273,0.363912563,-1.472732092,2.743440513
-0.930021524,-0.355933279,-0.091495328,-0.012268245,-0.467674553,-0.029783189,1.017591357,-0.561704934,-0.21151273,0.363912563,-1.472732092,2.743440513
-0.930021524,-0.355933279,-0.091495328,-0.012268245,-0.467674553,-0.029783189,1.017591357,-0.561704934,-0.21151273,0.363912563,-1.472732092,2.743440513
-0.930021524,-0.355933279,-0.091495328,-0.012268245,-0.467674553,-0.029783189,1.017591357,-0.561704934,-0.21151273,0.363912563,-1.472732092,2.743440513
-0.930021524,-0.355933279,-0.091495328,-0.012268245,-0.467674553,-0.029783189,1.017591357,-0.561704934,-0.21151273,0.363912563,-1.472732092,2.743440513
-0.930021524,-0.355933279,-0.091495328,-0.012268245,-0.467674553,-0.029783189,1.017591357,-0.561704934,-0.21151273,0.363912563,-1.472732092,2.743440513
-0.930021524,-0.355933279,-0.091495328,-0.012268245,-0.467674553,-0.029783189,1.017591357,-0.561704934,-0.21151273,0.363912563,-1.472732092,2.743440513
-0.928085268,-0.367496848,-0.060031421,0.007005394,-0.005488366,-0.026655614,0.904636979,-0.209547639,-0.103689596,0.37631608,-1.506203224,2.79321049
-0.928085268,-0.367496848,-0.060031421,0.007005394,-0.005488366,-0.026655614,0.904636979,-0.209547639,-0.103689596,0.37631608,-1.506203224,2.79321049
-0.928085268,-0.367496848,-0.060031421,0.007005394,-0.005488366,-0.026655614,0.904636979,-0.209547639,-0.103689596,0.37631608,-1.506203224,2.79321049
-0.928085268,-0.367496848,-0.060031421,0.007005394,-0.005488366,-0.026655614,0.904636979,-0.209547639,-0.103689596,0.37631608,-1.506203224,2.79321049
-0.928085268,-0.367496848,-0.060031421,0.007005394,-0.005488366,-0.026655614,0.904636979,-0.209547639,-0.103689596,0.37631608,-1.506203224,2.79321049
-0.928085268,-0.367496848,-0.060031421,0.007005394,-0.005488366,-0.026655614,0.904636979,-0.209547639,-0.103689596,0.37631608,-1.506203224,2.79321049
-0.928085268,-0.367496848,-0.060031421,0.007005394,-0.005488366,-0.026655614,0.904636979,-0.209547639,-0.103689596,0.37631608,-1.506203224,2.79321049
-0.928085268,-0.367496848,-0.060031421,0.007005394,-0.005488366,-0.026655614,0.904636979,-0.209547639,-0.103689596,0.37631608,-1.506203224,2.79321049
-0.928085268,-0.367496848,-0.060031421,0.007005394,-0.005488366,-0.026655614,0.904636979,-0.209547639,-0.103689596,0.37631608,-1.506203224,2.79321049
-0.928085268,-0.367496848,-0.060031421,0.007005394,-0.005488366,-0.026655614,0.904636979,-0.209547639,-0.103689596,0.37631608,-1.506203224,2.79321049
-0.928085268,-0.367496848,-0.060031421,0.007005394,-0.005488366,-0.026655614,0.904636979,-0.209547639,-0.103689596,0.37631608,-1.506203224,2.79321049
-0.92333585,-0.377257586,-0.071605869,-0.037615001,0.053329498,-0.047826648,-0.057351269,0.021856129,-0.021838028,0.386833282,-1.493399966,2.78756093
-0.92333585,-0.377257586,-0.071605869,-0.037615001,0.053329498,-0.047826648,-0.057351269,0.021856129,-0.021838028,0.386833282,-1.493399966,2.78756093
-0.92333585,-0.377257586,-0.071605869,-0.037615001,0.053329498,-0.047826648,-0.057351269,0.021856129,-0.021838028,0.386833282,-1.493399966,2.78756093
-0.92333585,-0.377257586,-0.071605869,-0.037615001,0.053329498,-0.047826648,-0.057351269,0.021856129,-0.021838028,0.386833282,-1.493399966,2.78756093
-0.92333585,-0.377257586,-0.071605869,-0.037615001,0.053329498,-0.047826648,-0.057351269,0.021856129,-0.021838028,0.386833282,-1.493399966,2.78756093
-0.92333585,-0.377257586,-0.071605869,-0.037615001,0.053329498,-0.047826648,-0.057351269,0.021856129,-0.021838028,0.386833282,-1.493399966,2.78756093
-0.923166931,-0.377668798,-0.071617439,0.009091079,-0.041977674,0.013631999,-0.024564149,-0.006483962,0.006676758,0.387277328,-1.493373403,2.785901124
-0.923166931,-0.377668798,-0.071617439,0.009091079,-0.041977674,0.013631999,-0.024564149,-0.006483962,0.006676758,0.387277328,-1.493373403,2.785901124
-0.923166931,-0.377668798,-0.071617439,0.009091079,-0.041977674,0.013631999,-0.024564149,-0.006483962,0.006676758,0.387277328,-1.493373403,2.785901124
-0.923166931,-0.377668798,-0.071617439,0.009091079,-0.041977674,0.013631999,-0.024564149,-0.006483962,0.006676758,0.387277328,-1.493373403,2.785901124
-0.923166931,-0.377668798,-0.071617439,0.009091079,-0.041977674,0.013631999,-0.024564149,-0.006483962,0.006676758,0.387277328,-1.493373403,2.785901124
-0.923166931,-0.377668798,-0.071617439,0.009091079,-0.041977674,0.013631999,-0.024564149,-0.006483962,0.006676758,0.387277328,-1.493373403,2.785901124
-0.923166931,-0.377668798,-0.071617439,0.009091079,-0.041977674,0.013631999,-0.024564149,-0.006483962,0.006676758,0.387277328,-1.493373403,2.785901124
-0.923166931,-0.377668798,-0.071617439,0.009091079,-0.041977674,0.013631999,-0.024564149,-0.006483962,0.006676758,0.387277328,-1.493373403,2.785901124
-0.923166931,-0.377668798,-0.071617439,0.009091079,-0.041977674,0.013631999,-0.024564149,-0.006483962,0.006676758,0.387277328,-1.493373403,2.785901124
-0.923166931,-0.377668798,-0.071617439,0.009091079,-0.041977674,0.013631999,-0.024564149,-0.006483962,0.006676758,0.387277328,-1.493373403,2.785901124
-0.923166931,-0.377668798,-0.071617439,0.009091079,-0.041977674,0.013631999,-0.024564149,-0.006483962,0.006676758,0.387277328,-1.493373403,2.785901124
-0.923166931,-0.377668798,-0.071617439,0.009091079,-0.041977674,0.013631999,-0.024564149,-0.006483962,0.006676758,0.387277328,-1.493373403,2.785901124
-0.923166931,-0.377668798,-0.071617439,0.009091079,-0.041977674,0.013631999,-0.024564149,-0.006483962,0.006676758,0.387277328,-1.493373403,2.785901124
-0.923166931,-0.377668798,-0.071617439,0.009091079,-0.041977674,0.013631999,-0.024564149,-0.006483962,0.006676758,0.387277328,-1.493373403,2.785901124
-0.923166931,-0.377668798,-0.071617439,0.009091079,-0.041977674,0.013631999,-0.024564149,-0.006483962,0.006676758,0.387277328,-1.493373403,2.785901124
-0.923195601,-0.376663446,-0.076383829,0.001414061,-0.018645257,0.034420133,0.101487711,0.023450308,-0.004464097,0.386191822,-1.488245844,2.784940968
-0.923195601,-0.376663446,-0.076383829,0.001414061,-0.018645257,0.034420133,0.101487711,0.023450308,-0.004464097,0.386191822,-1.488245844,2.784940968
-0.923195601,-0.376663446,-0.076383829,0.001414061,-0.018645257,0.034420133,0.101487711,0.023450308,-0.004464097,0.386191822,-1.488245844,2.784940968
-0.923195601,-0.376663446,-0.076383829,0.001414061,-0.018645257,0.034420133,0.101487711,0.023450308,-0.004464097,0.386191822,-1.488245844,2.784940968
-0.923195601,-0.376663446,-0.076383829,0.001414061,-0.018645257,0.034420133,0.101487711,0.023450308,-0.004464097,0.386191822,-1.488245844,2.784940968
-0.923195601,-0.376663446,-0.076383829,0.001414061,-0.018645257,0.034420133,0.101487711,0.023450308,-0.004464097,0.386191822,-1.488245844,2.784940968
-0.923195601,-0.376663446,-0.076383829,0.001414061,-0.018645257,0.034420133,0.101487711,0.023450308,-0.004464097,0.386191822,-1.488245844,2.784940968
-0.923195601,-0.376663446,-0.076383829,0.001414061,-0.018645257,0.034420133,0.101487711,0.023450308,-0.004464097,0.386191822,-1.488245844,2.784940968
-0.923195601,-0.376663446,-0.076383829,0.001414061,-0.018645257,0.034420133,0.101487711,0.023450308,-0.004464097,0.386191822,-1.488245844,2.784940968
-0.925190866,-0.371775597,-0.076188147,0.020910919,-0.039234519,0.018660665,0.022888575,0.003267602,0.036323279,0.380920969,-1.488633143,2.78790951
-0.925190866,-0.371775597,-0.076188147,0.020910919,-0.039234519,0.018660665,0.022888575,0.003267602,0.036323279,0.380920969,-1.488633143,2.78790951
-0.925190866,-0.371775597,-0.076188147,0.020910919,-0.039234519,0.018660665,0.022888575,0.003267602,0.036323279,0.380920969,-1.488633143,2.78790951
-0.925190866,-0.371775597,-0.076188147,0.020910919,-0.039234519,0.018660665,0.022888575,0.003267602,0.036323279,0.380920969,-1.488633143,2.78790951
-0.925190866,-0.371775597,-0.076188147,0.020910919,-0.039234519,0.018660665,0.022888575,0.003267602,0.036323279,0.380920969,-1.488633143,2.78790951
-0.925190866,-0.371775597,-0.076188147,0.020910919,-0.039234519,0.018660665,0.022888575,0.003267602,0.036323279,0.380920969,-1.488633143,2.78790951
-0.925190866,-0.371775597,-0.076188147,0.020910919,-0.039234519,0.018660665,0.022888575,0.003267602,0.036323279,0.380920969,-1.488633143,2.78790951
-0.925190866,-0.371775597,-0.076188147,0.020910919,-0.039234519,0.018660665,0.022888575,0.003267602,0.036323279,0.380920969,-1.488633143,2.78790951
-0.925190866,-0.371775597,-0.076188147,0.020910919,-0.039234519,0.018660665,0.022888575,0.003267602,0.036323279,0.380920969,-1.488633143,2.78790951
-0.925190866,-0.371775597,-0.076188147,0.020910919,-0.039234519,0.018660665,0.022888575,0.003267602,0.036323279,0.380920969,-1.488633143,2.78790951
-0.925190866,-0.371775597,-0.076188147,0.020910919,-0.039234519,0.018660665,0.022888575,0.003267602,0.036323279,0.380920969,-1.488633143,2.78790951
-0.925190866,-0.371775597,-0.076188147,0.020910919,-0.039234519,0.018660665,0.022888575,0.003267602,0.036323279,0.380920969,-1.488633143,2.78790951
-0.925190866,-0.371775597,-0.076188147,0.020910919,-0.039234519,0.018660665,0.022888575,0.003267602,0.036323279,0.380920969,-1.488633143,2.78790951
-0.925190866,-0.371775597,-0.076188147,0.020910919,-0.039234519,0.018660665,0.022888575,0.003267602,0.036323279,0.380920969,-1.488633143,2.78790951
-0.925190866,-0.371775597,-0.076188147,0.020910919,-0.039234519,0.018660665,0.022888575,0.003267602,0.036323279,0.380920969,-1.488633143,2.78790951
-0.925190866,-0.371775597,-0.076188147,0.020910919,-0.039234519,0.018660665,0.022888575,0.003267602,0.036323279,0.380920969,-1.488633143,2.78790951
-0.924289882,-0.374797225,-0.072215244,0.009206712,-0.04240793,0.029824436,-0.048474751,-0.007491073,0.050207138,0.384178055,-1.49282421,2.788751556
-0.924289882,-0.374797225,-0.072215244,0.009206712,-0.04240793,0.029824436,-0.048474751,-0.007491073,0.050207138,0.384178055,-1.49282421,2.788751556