gravityX,gravityY,gravityZ,accelX,accelY,accelZ,rotRateX,rotRatY,rotRateZ,attPitch,attRoll,attYaw
-0.948615313,-0.309056759,-0.067915805,0.044761062,0.022435695,0.021544099,0.072508261,0.215520799,-0.065687507,0.314201074,-1.499323603,0.294433678
-0.948615313,-0.309056759,-0.067915805,0.044761062,0.022435695,0.021544099,0.072508261,0.215520799,-0.065687507,0.314201074,-1.499323603,0.294433678
-0.948615313,-0.309056759,-0.067915805,0.044761062,0.022435695,0.021544099,0.072508261,0.215520799,-0.065687507,0.314201074,-1.499323603,0.294433678
-0.948615313,-0.309056759,-0.067915805,0.044761062,0.022435695,0.021544099,0.072508261,0.215520799,-0.065687507,0.314201074,-1.499323603,0.294433678
-0.948615313,-0.309056759,-0.067915805,0.044761062,0.022435695,0.021544099,0.072508261,0.215520799,-0.065687507,0.314201074,-1.499323603,0.294433678
-0.947984993,-0.310363561,-0.070702367,0.050524294,0.011505008,0.037941337,0.096515045,0.140079498,-0.080648132,0.31557545,-1.496352415,0.295759628
-0.947984993,-0.310363561,-0.070702367,0.050524294,0.011505008,0.037941337,0.096515045,0.140079498,-0.080648132,0.31557545,-1.496352415,0.295759628
-0.947984993,-0.310363561,-0.070702367,0.050524294,0.011505008,0.037941337,0.096515045,0.140079498,-0.080648132,0.31557545,-1.496352415,0.295759628
-0.947984993,-0.310363561,-0.070702367,0.050524294,0.011505008,0.037941337,0.096515045,0.140079498,-0.080648132,0.31557545,-1.496352415,0.295759628
-0.947984993,-0.310363561,-0.070702367,0.050524294,0.011505008,0.037941337,0.096515045,0.140079498,-0.080648132,0.31557545,-1.496352415,0.295759628
-0.947984993,-0.310363561,-0.070702367,0.050524294,0.011505008,0.037941337,0.096515045,0.140079498,-0.080648132,0.31557545,-1.496352415,0.295759628
-0.947984993,-0.310363561,-0.070702367,0.050524294,0.011505008,0.037941337,0.096515045,0.140079498,-0.080648132,0.31557545,-1.496352415,0.295759628
-0.947984993,-0.310363561,-0.070702367,0.050524294,0.011505008,0.037941337,0.096515045,0.140079498,-0.080648132,0.31557545,-1.496352415,0.295759628
-0.947984993,-0.310363561,-0.070702367,0.050524294,0.011505008,0.037941337,0.096515045,0.140079498,-0.080648132,0.31557545,-1.496352415,0.295759628
-0.947984993,-0.310363561,-0.070702367,0.050524294,0.011505008,0.037941337,0.096515045,0.140079498,-0.080648132,0.31557545,-1.496352415,0.295759628
-0.947984993,-0.310363561,-0.070702367,0.050524294,0.011505008,0.037941337,0.096515045,0.140079498,-0.080648132,0.31557545,-1.496352415,0.295759628
-0.947225153,-0.312327385,-0.072222792,0.031362414,0.056193471,0.030092895,0.176855668,0.113792628,-0.111429006,0.317641997,-1.494696869,0.298232456
-0.947225153,-0.312327385,-0.072222792,0.031362414,0.056193471,0.030092895,0.176855668,0.113792628,-0.111429006,0.317641997,-1.494696869,0.298232456
-0.947225153,-0.312327385,-0.072222792,0.031362414,0.056193471,0.030092895,0.176855668,0.113792628,-0.111429006,0.317641997,-1.494696869,0.298232456
-0.947225153,-0.312327385,-0.072222792,0.031362414,0.056193471,0.030092895,0.176855668,0.113792628,-0.111429006,0.317641997,-1.494696869,0.298232456
-0.947225153,-0.312327385,-0.072222792,0.031362414,0.056193471,0.030092895,0.176855668,0.113792628,-0.111429006,0.317641997,-1.494696869,0.298232456
-0.947225153,-0.312327385,-0.072222792,0.031362414,0.056193471,0.030092895,0.176855668,0.113792628,-0.111429006,0.317641997,-1.494696869,0.298232456
-0.947225153,-0.312327385,-0.072222792,0.031362414,0.056193471,0.030092895,0.176855668,0.113792628,-0.111429006,0.317641997,-1.494696869,0.298232456
-0.947225153,-0.312327385,-0.072222792,0.031362414,0.056193471,0.030092895,0.176855668,0.113792628,-0.111429006,0.317641997,-1.494696869,0.298232456
-0.947225153,-0.312327385,-0.072222792,0.031362414,0.056193471,0.030092895,0.176855668,0.113792628,-0.111429006,0.317641997,-1.494696869,0.298232456
-0.947225153,-0.312327385,-0.072222792,0.031362414,0.056193471,0.030092895,0.176855668,0.113792628,-0.111429006,0.317641997,-1.494696869,0.298232456
-0.947225153,-0.312327385,-0.072222792,0.031362414,0.056193471,0.030092895,0.176855668,0.113792628,-0.111429006,0.317641997,-1.494696869,0.298232456
-0.947225153,-0.312327385,-0.072222792,0.031362414,0.056193471,0.030092895,0.176855668,0.113792628,-0.111429006,0.317641997,-1.494696869,0.298232456
-0.946344912,-0.314931929,-0.072448581,0.007014453,0.005148172,0.021391928,0.255938053,0.08319287,-0.111199178,0.320384936,-1.494389158,0.302986919
-0.946344912,-0.314931929,-0.072448581,0.007014453,0.005148172,0.021391928,0.255938053,0.08319287,-0.111199178,0.320384936,-1.494389158,0.302986919
-0.946344912,-0.314931929,-0.072448581,0.007014453,0.005148172,0.021391928,0.255938053,0.08319287,-0.111199178,0.320384936,-1.494389158,0.302986919
-0.946344912,-0.314931929,-0.072448581,0.007014453,0.005148172,0.021391928,0.255938053,0.08319287,-0.111199178,0.320384936,-1.494389158,0.302986919
-0.946344912,-0.314931929,-0.072448581,0.007014453,0.005148172,0.021391928,0.255938053,0.08319287,-0.111199178,0.320384936,-1.494389158,0.302986919
-0.946344912,-0.314931929,-0.072448581,0.007014453,0.005148172,0.021391928,0.255938053,0.08319287,-0.111199178,0.320384936,-1.494389158,0.302986919
-0.946344912,-0.314931929,-0.072448581,0.007014453,0.005148172,0.021391928,0.255938053,0.08319287,-0.111199178,0.320384936,-1.494389158,0.302986919
-0.946344912,-0.314931929,-0.072448581,0.007014453,0.005148172,0.021391928,0.255938053,0.08319287,-0.111199178,0.320384936,-1.494389158,0.302986919
-0.946344912,-0.314931929,-0.072448581,0.007014453,0.005148172,0.021391928,0.255938053,0.08319287,-0.111199178,0.320384936,-1.494389158,0.302986919
-0.946344912,-0.314931929,-0.072448581,0.007014453,0.005148172,0.021391928,0.255938053,0.08319287,-0.111199178,0.320384936,-1.494389158,0.302986919
-0.946344912,-0.314931929,-0.072448581,0.007014453,0.005148172,0.021391928,0.255938053,0.08319287,-0.111199178,0.320384936,-1.494389158,0.302986919
-0.946344912,-0.314931929,-0.072448581,0.007014453,0.005148172,0.021391928,0.255938053,0.08319287,-0.111199178,0.320384936,-1.494389158,0.302986919
-0.945504844,-0.317525715,-0.072097965,-0.018102646,-0.042718947,0.022720098,0.286212116,0.071937874,-0.126727805,0.32311903,-1.494690206,0.308477397
-0.945504844,-0.317525715,-0.072097965,-0.018102646,-0.042718947,0.022720098,0.286212116,0.071937874,-0.126727805,0.32311903,-1.494690206,0.308477397
-0.945504844,-0.317525715,-0.072097965,-0.018102646,-0.042718947,0.022720098,0.286212116,0.071937874,-0.126727805,0.32311903,-1.494690206,0.308477397
-0.945504844,-0.317525715,-0.072097965,-0.018102646,-0.042718947,0.022720098,0.286212116,0.071937874,-0.126727805,0.32311903,-1.494690206,0.308477397
-0.945504844,-0.317525715,-0.072097965,-0.018102646,-0.042718947,0.022720098,0.286212116,0.071937874,-0.126727805,0.32311903,-1.494690206,0.308477397
-0.945504844,-0.317525715,-0.072097965,-0.018102646,-0.042718947,0.022720098,0.286212116,0.071937874,-0.126727805,0.32311903,-1.494690206,0.308477397
-0.945504844,-0.317525715,-0.072097965,-0.018102646,-0.042718947,0.022720098,0.286212116,0.071937874,-0.126727805,0.32311903,-1.494690206,0.308477397
-0.945504844,-0.317525715,-0.072097965,-0.018102646,-0.042718947,0.022720098,0.286212116,0.071937874,-0.126727805,0.32311903,-1.494690206,0.308477397
-0.945504844,-0.317525715,-0.072097965,-0.018102646,-0.042718947,0.022720098,0.286212116,0.071937874,-0.126727805,0.32311903,-1.494690206,0.308477397
-0.945504844,-0.317525715,-0.072097965,-0.018102646,-0.042718947,0.022720098,0.286212116,0.071937874,-0.126727805,0.32311903,-1.494690206,0.308477397
-0.945504844,-0.317525715,-0.072097965,-0.018102646,-0.042718947,0.022720098,0.286212116,0.071937874,-0.126727805,0.32311903,-1.494690206,0.308477397
-0.945504844,-0.317525715,-0.072097965,-0.018102646,-0.042718947,0.022720098,0.286212116,0.071937874,-0.126727805,0.32311903,-1.494690206,0.308477397
-0.944646299,-0.320053041,-0.07217598,-0.036051273,-0.034927398,0.012727499,0.225998655,0.091815941,-0.118953764,0.325785467,-1.494539192,0.313445824
-0.944646299,-0.320053041,-0.07217598,-0.036051273,-0.034927398,0.012727499,0.225998655,0.091815941,-0.118953764,0.325785467,-1.494539192,0.313445824
-0.944646299,-0.320053041,-0.07217598,-0.036051273,-0.034927398,0.012727499,0.225998655,0.091815941,-0.118953764,0.325785467,-1.494539192,0.313445824
-0.944646299,-0.320053041,-0.07217598,-0.036051273,-0.034927398,0.012727499,0.225998655,0.091815941,-0.118953764,0.325785467,-1.494539192,0.313445824
-0.944646299,-0.320053041,-0.07217598,-0.036051273,-0.034927398,0.012727499,0.225998655,0.091815941,-0.118953764,0.325785467,-1.494539192,0.313445824
-0.944646299,-0.320053041,-0.07217598,-0.036051273,-0.034927398,0.012727499,0.225998655,0.091815941,-0.118953764,0.325785467,-1.494539192,0.313445824
-0.944646299,-0.320053041,-0.07217598,-0.036051273,-0.034927398,0.012727499,0.225998655,0.091815941,-0.118953764,0.325785467,-1.494539192,0.313445824
-0.943689704,-0.322799325,-0.072457843,-0.01305151,-0.052688897,-0.003409147,0.233694047,0.089863166,-0.126100153,0.32868566,-1.494165253,0.318215434
-0.943689704,-0.322799325,-0.072457843,-0.01305151,-0.052688897,-0.003409147,0.233694047,0.089863166,-0.126100153,0.32868566,-1.494165253,0.318215434
-0.943689704,-0.322799325,-0.072457843,-0.01305151,-0.052688897,-0.003409147,0.233694047,0.089863166,-0.126100153,0.32868566,-1.494165253,0.318215434
-0.943689704,-0.322799325,-0.072457843,-0.01305151,-0.052688897,-0.003409147,0.233694047,0.089863166,-0.126100153,0.32868566,-1.494165253,0.318215434
-0.946774602,-0.316598535,-0.058161363,0.020352602,-0.061178535,-0.022832513,0.229858235,0.113455482,-0.15575999,0.322141394,-1.509442375,0.328009515
-0.946774602,-0.316598535,-0.058161363,0.020352602,-0.061178535,-0.022832513,0.229858235,0.113455482,-0.15575999,0.322141394,-1.509442375,0.328009515
-0.946774602,-0.316598535,-0.058161363,0.020352602,-0.061178535,-0.022832513,0.229858235,0.113455482,-0.15575999,0.322141394,-1.509442375,0.328009515
-0.946774602,-0.316598535,-0.058161363,0.020352602,-0.061178535,-0.022832513,0.229858235,0.113455482,-0.15575999,0.322141394,-1.509442375,0.328009515
-0.946774602,-0.316598535,-0.058161363,0.020352602,-0.061178535,-0.022832513,0.229858235,0.113455482,-0.15575999,0.322141394,-1.509442375,0.328009515
-0.946774602,-0.316598535,-0.058161363,0.020352602,-0.061178535,-0.022832513,0.229858235,0.113455482,-0.15575999,0.322141394,-1.509442375,0.328009515
-0.946774602,-0.316598535,-0.058161363,0.020352602,-0.061178535,-0.022832513,0.229858235,0.113455482,-0.15575999,0.322141394,-1.509442375,0.328009515
-0.946774602,-0.316598535,-0.058161363,0.020352602,-0.061178535,-0.022832513,0.229858235,0.113455482,-0.15575999,0.322141394,-1.509442375,0.328009515
-0.946774602,-0.316598535,-0.058161363,0.020352602,-0.061178535,-0.022832513,0.229858235,0.113455482,-0.15575999,0.322141394,-1.509442375,0.328009515
-0.94126153,-0.333349794,-0.053892054,0.022499263,-0.029962033,-0.037187696,0.151568368,0.100660697,-0.17453894,0.339854359,-1.513603634,0.333390484
-0.94126153,-0.333349794,-0.053892054,0.022499263,-0.029962033,-0.037187696,0.151568368,0.100660697,-0.17453894,0.339854359,-1.513603634,0.333390484
-0.94126153,-0.333349794,-0.053892054,0.022499263,-0.029962033,-0.037187696,0.151568368,0.100660697,-0.17453894,0.339854359,-1.513603634,0.333390484
-0.94126153,-0.333349794,-0.053892054,0.022499263,-0.029962033,-0.037187696,0.151568368,0.100660697,-0.17453894,0.339854359,-1.513603634,0.333390484
-0.94126153,-0.333349794,-0.053892054,0.022499263,-0.029962033,-0.037187696,0.151568368,0.100660697,-0.17453894,0.339854359,-1.513603634,0.333390484
-0.94126153,-0.333349794,-0.053892054,0.022499263,-0.029962033,-0.037187696,0.151568368,0.100660697,-0.17453894,0.339854359,-1.513603634,0.333390484
-0.93904084,-0.33934176,-0.055220041,0.005187631,-0.015654027,-0.022538781,0.085657485,0.106066115,-0.168297499,0.346217032,-1.512059239,0.335661641
-0.93904084,-0.33934176,-0.055220041,0.005187631,-0.015654027,-0.022538781,0.085657485,0.106066115,-0.168297499,0.346217032,-1.512059239,0.335661641
-0.93904084,-0.33934176,-0.055220041,0.005187631,-0.015654027,-0.022538781,0.085657485,0.106066115,-0.168297499,0.346217032,-1.512059239,0.335661641
-0.936353445,-0.345424712,-0.062642053,-0.002122343,0.017147392,-0.009319305,0.345686078,-0.045334604,-0.035480764,0.352691311,-1.503995857,0.379531364
-0.936353445,-0.345424712,-0.062642053,-0.002122343,0.017147392,-0.009319305,0.345686078,-0.045334604,-0.035480764,0.352691311,-1.503995857,0.379531364
-0.936353445,-0.345424712,-0.062642053,-0.002122343,0.017147392,-0.009319305,0.345686078,-0.045334604,-0.035480764,0.352691311,-1.503995857,0.379531364
-0.935286224,-0.349122792,-0.057905417,-0.012695968,-0.074827194,-0.051851749,-0.365581095,-0.095891654,0.019275479,0.356634834,-1.508963275,0.382208976
-0.935286224,-0.349122792,-0.057905417,-0.012695968,-0.074827194,-0.051851749,-0.365581095,-0.095891654,0.019275479,0.356634834,-1.508963275,0.382208976
-0.935286224,-0.349122792,-0.057905417,-0.012695968,-0.074827194,-0.051851749,-0.365581095,-0.095891654,0.019275479,0.356634834,-1.508963275,0.382208976
-0.935349286,-0.348747998,-0.059131559,0.003022611,-0.109915704,-0.066250682,-0.447094262,-0.150934026,-0.038198892,0.356234906,-1.507661651,0.373283222
-0.935349286,-0.348747998,-0.059131559,0.003022611,-0.109915704,-0.066250682,-0.447094262,-0.150934026,-0.038198892,0.356234906,-1.507661651,0.373283222
-0.935349286,-0.348747998,-0.059131559,0.003022611,-0.109915704,-0.066250682,-0.447094262,-0.150934026,-0.038198892,0.356234906,-1.507661651,0.373283222
-0.93462646,-0.350708038,-0.058966242,-0.014942467,-0.148009956,-0.073236823,-0.511119723,-0.233750373,-0.161539838,0.358327059,-1.507789133,0.363050134
-0.93462646,-0.350708038,-0.058966242,-0.014942467,-0.148009956,-0.073236823,-0.511119723,-0.233750373,-0.161539838,0.358327059,-1.507789133,0.363050134
-0.93462646,-0.350708038,-0.058966242,-0.014942467,-0.148009956,-0.073236823,-0.511119723,-0.233750373,-0.161539838,0.358327059,-1.507789133,0.363050134
-0.918301761,-0.391437888,-0.059144627,-0.251786947,-0.298396289,-0.074370861,-0.344961703,-0.030470099,-1.491818905,0.402193642,-1.506478638,0.330501488
-0.918301761,-0.391437888,-0.059144627,-0.251786947,-0.298396289,-0.074370861,-0.344961703,-0.030470099,-1.491818905,0.402193642,-1.506478638,0.330501488
-0.918301761,-0.391437888,-0.059144627,-0.251786947,-0.298396289,-0.074370861,-0.344961703,-0.030470099,-1.491818905,0.402193642,-1.506478638,0.330501488
-0.847325087,-0.528159797,-0.055563007,-0.365274668,-0.385780036,-0.032343984,0.75426954,0.258512318,-3.595330954,0.556432004,-1.505315475,0.341604124
-0.847325087,-0.528159797,-0.055563007,-0.365274668,-0.385780036,-0.032343984,0.75426954,0.258512318,-3.595330954,0.556432004,-1.505315475,0.341604124
-0.847325087,-0.528159797,-0.055563007,-0.365274668,-0.385780036,-0.032343984,0.75426954,0.258512318,-3.595330954,0.556432004,-1.505315475,0.341604124
-0.75159955,-0.657541156,-0.052318487,-0.384874225,-0.527394593,0.098810792,0.401105434,0.372471005,-4.334424496,0.717550538,-1.501298904,0.359505539
-0.75159955,-0.657541156,-0.052318487,-0.384874225,-0.527394593,0.098810792,0.401105434,0.372471005,-4.334424496,0.717550538,-1.501298904,0.359505539
-0.75159955,-0.657541156,-0.052318487,-0.384874225,-0.527394593,0.098810792,0.401105434,0.372471005,-4.334424496,0.717550538,-1.501298904,0.359505539
-0.690368116,-0.721424162,-0.054213021,-0.421753049,-0.459163189,0.075254261,0.072586268,0.326674908,-4.469045639,0.805856725,-1.492429449,0.357136307
-0.690368116,-0.721424162,-0.054213021,-0.421753049,-0.459163189,0.075254261,0.072586268,0.326674908,-4.469045639,0.805856725,-1.492429449,0.357136307
-0.690368116,-0.721424162,-0.054213021,-0.421753049,-0.459163189,0.075254261,0.072586268,0.326674908,-4.469045639,0.805856725,-1.492429449,0.357136307
-0.690368116,-0.721424162,-0.054213021,-0.421753049,-0.459163189,0.075254261,0.072586268,0.326674908,-4.469045639,0.805856725,-1.492429449,0.357136307
-0.690368116,-0.721424162,-0.054213021,-0.421753049,-0.459163189,0.075254261,0.072586268,0.326674908,-4.469045639,0.805856725,-1.492429449,0.357136307
-0.690368116,-0.721424162,-0.054213021,-0.421753049,-0.459163189,0.075254261,0.072586268,0.326674908,-4.469045639,0.805856725,-1.492429449,0.357136307
-0.622549534,-0.78037852,-0.058663033,-0.406578958,-0.465195835,-0.057457209,-0.407531738,-0.087640867,-4.537279129,0.895270885,-1.476843448,0.340657067
-0.622549534,-0.78037852,-0.058663033,-0.406578958,-0.465195835,-0.057457209,-0.407531738,-0.087640867,-4.537279129,0.895270885,-1.476843448,0.340657067
-0.622549534,-0.78037852,-0.058663033,-0.406578958,-0.465195835,-0.057457209,-0.407531738,-0.087640867,-4.537279129,0.895270885,-1.476843448,0.340657067
-0.548660696,-0.833384037,-0.06664864,-0.280333459,-0.379917622,-0.003726006,-0.959875405,-0.45744592,-4.655399323,0.98520248,-1.449913457,0.30020208
-0.548660696,-0.833384037,-0.06664864,-0.280333459,-0.379917622,-0.003726006,-0.959875405,-0.45744592,-4.655399323,0.98520248,-1.449913457,0.30020208
-0.548660696,-0.833384037,-0.06664864,-0.280333459,-0.379917622,-0.003726006,-0.959875405,-0.45744592,-4.655399323,0.98520248,-1.449913457,0.30020208
-0.548660696,-0.833384037,-0.06664864,-0.280333459,-0.379917622,-0.003726006,-0.959875405,-0.45744592,-4.655399323,0.98520248,-1.449913457,0.30020208
-0.548660696,-0.833384037,-0.06664864,-0.280333459,-0.379917622,-0.003726006,-0.959875405,-0.45744592,-4.655399323,0.98520248,-1.449913457,0.30020208
-0.548660696,-0.833384037,-0.06664864,-0.280333459,-0.379917622,-0.003726006,-0.959875405,-0.45744592,-4.655399323,0.98520248,-1.449913457,0.30020208
-0.548660696,-0.833384037,-0.06664864,-0.280333459,-0.379917622,-0.003726006,-0.959875405,-0.45744592,-4.655399323,0.98520248,-1.449913457,0.30020208
-0.548660696,-0.833384037,-0.06664864,-0.280333459,-0.379917622,-0.003726006,-0.959875405,-0.45744592,-4.655399323,0.98520248,-1.449913457,0.30020208
-0.548660696,-0.833384037,-0.06664864,-0.280333459,-0.379917622,-0.003726006,-0.959875405,-0.45744592,-4.655399323,0.98520248,-1.449913457,0.30020208
-0.469819963,-0.879321575,-0.077862099,-0.18276751,-0.095912695,0.108516097,-0.999149024,-0.777637064,-4.670780182,1.07443574,-1.406561553,0.235235254
-0.469819963,-0.879321575,-0.077862099,-0.18276751,-0.095912695,0.108516097,-0.999149024,-0.777637064,-4.670780182,1.07443574,-1.406561553,0.235235254
-0.469819963,-0.879321575,-0.077862099,-0.18276751,-0.095912695,0.108516097,-0.999149024,-0.777637064,-4.670780182,1.07443574,-1.406561553,0.235235254
-0.469819963,-0.879321575,-0.077862099,-0.18276751,-0.095912695,0.108516097,-0.999149024,-0.777637064,-4.670780182,1.07443574,-1.406561553,0.235235254
-0.469819963,-0.879321575,-0.077862099,-0.18276751,-0.095912695,0.108516097,-0.999149024,-0.777637064,-4.670780182,1.07443574,-1.406561553,0.235235254
-0.469819963,-0.879321575,-0.077862099,-0.18276751,-0.095912695,0.108516097,-0.999149024,-0.777637064,-4.670780182,1.07443574,-1.406561553,0.235235254
-0.386251271,-0.918307126,-0.08672712,-0.23334679,-0.009792626,0.154383659,-0.839179873,-0.885014534,-4.747801781,1.163782734,-1.349924056,0.153136227
-0.386251271,-0.918307126,-0.08672712,-0.23334679,-0.009792626,0.154383659,-0.839179873,-0.885014534,-4.747801781,1.163782734,-1.349924056,0.153136227
-0.386251271,-0.918307126,-0.08672712,-0.23334679,-0.009792626,0.154383659,-0.839179873,-0.885014534,-4.747801781,1.163782734,-1.349924056,0.153136227
-0.30006215,-0.949238777,-0.094382875,-0.344422966,-0.063150287,0.162207007,-0.595714509,-0.841143489,-4.698990345,1.250807098,-1.266050013,0.045097158
-0.30006215,-0.949238777,-0.094382875,-0.344422966,-0.063150287,0.162207007,-0.595714509,-0.841143489,-4.698990345,1.250807098,-1.266050013,0.045097158
-0.30006215,-0.949238777,-0.094382875,-0.344422966,-0.063150287,0.162207007,-0.595714509,-0.841143489,-4.698990345,1.250807098,-1.266050013,0.045097158
-0.111801922,-0.989639282,-0.090079471,-0.28875646,-0.129515707,0.437216103,0.312246561,-1.042161345,-5.20352459,1.426722482,-0.892585835,-0.376478566
-0.111801922,-0.989639282,-0.090079471,-0.28875646,-0.129515707,0.437216103,0.312246561,-1.042161345,-5.20352459,1.426722482,-0.892585835,-0.376478566
-0.111801922,-0.989639282,-0.090079471,-0.28875646,-0.129515707,0.437216103,0.312246561,-1.042161345,-5.20352459,1.426722482,-0.892585835,-0.376478566
-0.009793306,-0.996497393,-0.083046444,-0.225176781,-0.041785657,0.479514241,0.252717614,-1.191424489,-5.268881798,1.487074636,-0.117383519,-1.17844135
-0.009793306,-0.996497393,-0.083046444,-0.225176781,-0.041785657,0.479514241,0.252717614,-1.191424489,-5.268881798,1.487074636,-0.117383519,-1.17844135
-0.009793306,-0.996497393,-0.083046444,-0.225176781,-0.041785657,0.479514241,0.252717614,-1.191424489,-5.268881798,1.487074636,-0.117383519,-1.17844135
0.198069632,-0.977032959,-0.078579344,-0.117579818,-0.018678308,0.536357045,0.463639647,-1.683596134,-5.368247986,1.356061525,1.193115658,-2.554934621
0.198069632,-0.977032959,-0.078579344,-0.117579818,-0.018678308,0.536357045,0.463639647,-1.683596134,-5.368247986,1.356061525,1.193115658,-2.554934621
0.198069632,-0.977032959,-0.078579344,-0.117579818,-0.018678308,0.536357045,0.463639647,-1.683596134,-5.368247986,1.356061525,1.193115658,-2.554934621
0.198069632,-0.977032959,-0.078579344,-0.117579818,-0.018678308,0.536357045,0.463639647,-1.683596134,-5.368247986,1.356061525,1.193115658,-2.554934621
0.198069632,-0.977032959,-0.078579344,-0.117579818,-0.018678308,0.536357045,0.463639647,-1.683596134,-5.368247986,1.356061525,1.193115658,-2.554934621
0.198069632,-0.977032959,-0.078579344,-0.117579818,-0.018678308,0.536357045,0.463639647,-1.683596134,-5.368247986,1.356061525,1.193115658,-2.554934621
0.198069632,-0.977032959,-0.078579344,-0.117579818,-0.018678308,0.536357045,0.463639647,-1.683596134,-5.368247986,1.356061525,1.193115658,-2.554934621
0.198069632,-0.977032959,-0.078579344,-0.117579818,-0.018678308,0.536357045,0.463639647,-1.683596134,-5.368247986,1.356061525,1.193115658,-2.554934621
0.297715962,-0.95159328,-0.076390669,-0.196443617,-0.017903686,0.451984942,0.668386638,-1.872385144,-5.248643875,1.258378799,1.31962586,-2.723064742
0.297715962,-0.95159328,-0.076390669,-0.196443617,-0.017903686,0.451984942,0.668386638,-1.872385144,-5.248643875,1.258378799,1.31962586,-2.723064742
0.297715962,-0.95159328,-0.076390669,-0.196443617,-0.017903686,0.451984942,0.668386638,-1.872385144,-5.248643875,1.258378799,1.31962586,-2.723064742
0.297715962,-0.95159328,-0.076390669,-0.196443617,-0.017903686,0.451984942,0.668386638,-1.872385144,-5.248643875,1.258378799,1.31962586,-2.723064742
0.297715962,-0.95159328,-0.076390669,-0.196443617,-0.017903686,0.451984942,0.668386638,-1.872385144,-5.248643875,1.258378799,1.31962586,-2.723064742
0.390330076,-0.917354226,-0.078123264,-0.237193376,0.074917495,0.352261543,0.497930825,-1.96165204,-4.926627636,1.161382337,1.373259741,-2.821129531
0.390330076,-0.917354226,-0.078123264,-0.237193376,0.074917495,0.352261543,0.497930825,-1.96165204,-4.926627636,1.161382337,1.373259741,-2.821129531
0.390330076,-0.917354226,-0.078123264,-0.237193376,0.074917495,0.352261543,0.497930825,-1.96165204,-4.926627636,1.161382337,1.373259741,-2.821129531
0.471416295,-0.87730366,-0.090025693,-0.267193228,0.037338734,0.345533013,0.138604507,-2.228888988,-4.463188648,1.070214872,1.382099731,-2.877197943
0.471416295,-0.87730366,-0.090025693,-0.267193228,0.037338734,0.345533013,0.138604507,-2.228888988,-4.463188648,1.070214872,1.382099731,-2.877197943
0.471416295,-0.87730366,-0.090025693,-0.267193228,0.037338734,0.345533013,0.138604507,-2.228888988,-4.463188648,1.070214872,1.382099731,-2.877197943
0.471416295,-0.87730366,-0.090025693,-0.267193228,0.037338734,0.345533013,0.138604507,-2.228888988,-4.463188648,1.070214872,1.382099731,-2.877197943
0.471416295,-0.87730366,-0.090025693,-0.267193228,0.037338734,0.345533013,0.138604507,-2.228888988,-4.463188648,1.070214872,1.382099731,-2.877197943
0.538651705,-0.834376216,-0.116920687,-0.362474263,0.064281166,0.291342974,-0.41696173,-2.543078899,-3.971793175,0.987000168,1.357050338,-2.903931047
0.538651705,-0.834376216,-0.116920687,-0.362474263,0.064281166,0.291342974,-0.41696173,-2.543078899,-3.971793175,0.987000168,1.357050338,-2.903931047
0.538651705,-0.834376216,-0.116920687,-0.362474263,0.064281166,0.291342974,-0.41696173,-2.543078899,-3.971793175,0.987000168,1.357050338,-2.903931047
0.538651705,-0.834376216,-0.116920687,-0.362474263,0.064281166,0.291342974,-0.41696173,-2.543078899,-3.971793175,0.987000168,1.357050338,-2.903931047
0.538651705,-0.834376216,-0.116920687,-0.362474263,0.064281166,0.291342974,-0.41696173,-2.543078899,-3.971793175,0.987000168,1.357050338,-2.903931047
0.538651705,-0.834376216,-0.116920687,-0.362474263,0.064281166,0.291342974,-0.41696173,-2.543078899,-3.971793175,0.987000168,1.357050338,-2.903931047
0.538651705,-0.834376216,-0.116920687,-0.362474263,0.064281166,0.291342974,-0.41696173,-2.543078899,-3.971793175,0.987000168,1.357050338,-2.903931047
0.592542231,-0.790516555,-0.154845461,-0.475294352,0.238912225,0.17391789,-0.489418238,-2.599555492,-3.585339308,0.911652016,1.315188554,-2.916407715
0.592542231,-0.790516555,-0.154845461,-0.475294352,0.238912225,0.17391789,-0.489418238,-2.599555492,-3.585339308,0.911652016,1.315188554,-2.916407715
0.592542231,-0.790516555,-0.154845461,-0.475294352,0.238912225,0.17391789,-0.489418238,-2.599555492,-3.585339308,0.911652016,1.315188554,-2.916407715
0.592542231,-0.790516555,-0.154845461,-0.475294352,0.238912225,0.17391789,-0.489418238,-2.599555492,-3.585339308,0.911652016,1.315188554,-2.916407715
0.592542231,-0.790516555,-0.154845461,-0.475294352,0.238912225,0.17391789,-0.489418238,-2.599555492,-3.585339308,0.911652016,1.315188554,-2.916407715
0.592542231,-0.790516555,-0.154845461,-0.475294352,0.238912225,0.17391789,-0.489418238,-2.599555492,-3.585339308,0.911652016,1.315188554,-2.916407715
0.637010634,-0.747543752,-0.18813698,-0.535143912,0.399323881,0.12101233,0.1541619,-2.23084116,-3.267680645,0.844356358,1.283616971,-2.939284273
0.637010634,-0.747543752,-0.18813698,-0.535143912,0.399323881,0.12101233,0.1541619,-2.23084116,-3.267680645,0.844356358,1.283616971,-2.939284273
0.637010634,-0.747543752,-0.18813698,-0.535143912,0.399323881,0.12101233,0.1541619,-2.23084116,-3.267680645,0.844356358,1.283616971,-2.939284273
0.637010634,-0.747543752,-0.18813698,-0.535143912,0.399323881,0.12101233,0.1541619,-2.23084116,-3.267680645,0.844356358,1.283616971,-2.939284273
0.637010634,-0.747543752,-0.18813698,-0.535143912,0.399323881,0.12101233,0.1541619,-2.23084116,-3.267680645,0.844356358,1.283616971,-2.939284273
0.637010634,-0.747543752,-0.18813698,-0.535143912,0.399323881,0.12101233,0.1541619,-2.23084116,-3.267680645,0.844356358,1.283616971,-2.939284273
0.673757493,-0.709320247,-0.207160383,-0.472693384,0.249039769,0.218069196,0.784782708,-1.876363635,-2.899123192,0.788533378,1.272500253,-2.978835662
0.673757493,-0.709320247,-0.207160383,-0.472693384,0.249039769,0.218069196,0.784782708,-1.876363635,-2.899123192,0.788533378,1.272500253,-2.978835662
0.673757493,-0.709320247,-0.207160383,-0.472693384,0.249039769,0.218069196,0.784782708,-1.876363635,-2.899123192,0.788533378,1.272500253,-2.978835662
0.673757493,-0.709320247,-0.207160383,-0.472693384,0.249039769,0.218069196,0.784782708,-1.876363635,-2.899123192,0.788533378,1.272500253,-2.978835662
0.673757493,-0.709320247,-0.207160383,-0.472693384,0.249039769,0.218069196,0.784782708,-1.876363635,-2.899123192,0.788533378,1.272500253,-2.978835662
0.673757493,-0.709320247,-0.207160383,-0.472693384,0.249039769,0.218069196,0.784782708,-1.876363635,-2.899123192,0.788533378,1.272500253,-2.978835662
0.673757493,-0.709320247,-0.207160383,-0.472693384,0.249039769,0.218069196,0.784782708,-1.876363635,-2.899123192,0.788533378,1.272500253,-2.978835662
0.673757493,-0.709320247,-0.207160383,-0.472693384,0.249039769,0.218069196,0.784782708,-1.876363635,-2.899123192,0.788533378,1.272500253,-2.978835662
0.673757493,-0.709320247,-0.207160383,-0.472693384,0.249039769,0.218069196,0.784782708,-1.876363635,-2.899123192,0.788533378,1.272500253,-2.978835662
0.702918649,-0.674964845,-0.224338219,-0.343773484,0.011803448,0.149080634,0.894605815,-2.491286755,-2.67357707,0.740917027,1.261862386,-3.025581927
0.702918649,-0.674964845,-0.224338219,-0.343773484,0.011803448,0.149080634,0.894605815,-2.491286755,-2.67357707,0.740917027,1.261862386,-3.025581927
0.702918649,-0.674964845,-0.224338219,-0.343773484,0.011803448,0.149080634,0.894605815,-2.491286755,-2.67357707,0.740917027,1.261862386,-3.025581927
0.723006725,-0.643348575,-0.251721442,-0.399246812,0.095482588,0.061611056,1.011893511,-2.921236277,-2.307384253,0.698864185,1.235762336,-3.070319979
0.723006725,-0.643348575,-0.251721442,-0.399246812,0.095482588,0.061611056,1.011893511,-2.921236277,-2.307384253,0.698864185,1.235762336,-3.070319979
0.723006725,-0.643348575,-0.251721442,-0.399246812,0.095482588,0.061611056,1.011893511,-2.921236277,-2.307384253,0.698864185,1.235762336,-3.070319979
0.723006725,-0.643348575,-0.251721442,-0.399246812,0.095482588,0.061611056,1.011893511,-2.921236277,-2.307384253,0.698864185,1.235762336,-3.070319979
0.734969437,-0.61905843,-0.276742756,-0.547775626,0.174158692,0.052162945,1.142736673,-2.301599264,-1.865942597,0.667543215,1.210679335,-3.114930703
0.734969437,-0.61905843,-0.276742756,-0.547775626,0.174158692,0.052162945,1.142736673,-2.301599264,-1.865942597,0.667543215,1.210679335,-3.114930703
0.734969437,-0.61905843,-0.276742756,-0.547775626,0.174158692,0.052162945,1.142736673,-2.301599264,-1.865942597,0.667543215,1.210679335,-3.114930703
0.734969437,-0.61905843,-0.276742756,-0.547775626,0.174158692,0.052162945,1.142736673,-2.301599264,-1.865942597,0.667543215,1.210679335,-3.114930703
0.734969437,-0.61905843,-0.276742756,-0.547775626,0.174158692,0.052162945,1.142736673,-2.301599264,-1.865942597,0.667543215,1.210679335,-3.114930703
0.734969437,-0.61905843,-0.276742756,-0.547775626,0.174158692,0.052162945,1.142736673,-2.301599264,-1.865942597,0.667543215,1.210679335,-3.114930703
0.74361527,-0.598980784,-0.29708305,-0.412363231,-0.054064155,0.144265294,0.425893962,-2.022212029,-1.505073071,0.642227689,1.190710905,3.13293039
0.74361527,-0.598980784,-0.29708305,-0.412363231,-0.054064155,0.144265294,0.425893962,-2.022212029,-1.505073071,0.642227689,1.190710905,3.13293039
0.74361527,-0.598980784,-0.29708305,-0.412363231,-0.054064155,0.144265294,0.425893962,-2.022212029,-1.505073071,0.642227689,1.190710905,3.13293039
0.74361527,-0.598980784,-0.29708305,-0.412363231,-0.054064155,0.144265294,0.425893962,-2.022212029,-1.505073071,0.642227689,1.190710905,3.13293039
0.74361527,-0.598980784,-0.29708305,-0.412363231,-0.054064155,0.144265294,0.425893962,-2.022212029,-1.505073071,0.642227689,1.190710905,3.13293039
0.745506763,-0.577146769,-0.333348304,-0.245126545,-0.116654277,0.069766879,-0.641420305,-2.571256638,-1.337998271,0.615230476,1.150320647,3.123415554
0.745506763,-0.577146769,-0.333348304,-0.245126545,-0.116654277,0.069766879,-0.641420305,-2.571256638,-1.337998271,0.615230476,1.150320647,3.123415554
0.745506763,-0.577146769,-0.333348304,-0.245126545,-0.116654277,0.069766879,-0.641420305,-2.571256638,-1.337998271,0.615230476,1.150320647,3.123415554
0.745506763,-0.577146769,-0.333348304,-0.245126545,-0.116654277,0.069766879,-0.641420305,-2.571256638,-1.337998271,0.615230476,1.150320647,3.123415554
0.745506763,-0.577146769,-0.333348304,-0.245126545,-0.116654277,0.069766879,-0.641420305,-2.571256638,-1.337998271,0.615230476,1.150320647,3.123415554
0.745506763,-0.577146769,-0.333348304,-0.245126545,-0.116654277,0.069766879,-0.641420305,-2.571256638,-1.337998271,0.615230476,1.150320647,3.123415554
0.735710144,-0.534175217,-0.416398078,-0.576379061,0.224956632,0.049667299,-0.299615532,-1.364639878,-0.890841067,0.563531789,1.055766358,3.128717333
0.735710144,-0.534175217,-0.416398078,-0.576379061,0.224956632,0.049667299,-0.299615532,-1.364639878,-0.890841067,0.563531789,1.055766358,3.128717333
0.735710144,-0.534175217,-0.416398078,-0.576379061,0.224956632,0.049667299,-0.299615532,-1.364639878,-0.890841067,0.563531789,1.055766358,3.128717333
0.735271573,-0.524741113,-0.428978324,-0.370618224,0.218482673,0.038749099,0.334383875,-0.578706622,-0.296995044,0.55241094,1.042650948,3.120153805
0.735271573,-0.524741113,-0.428978324,-0.370618224,0.218482673,0.038749099,0.334383875,-0.578706622,-0.296995044,0.55241094,1.042650948,3.120153805
0.735271573,-0.524741113,-0.428978324,-0.370618224,0.218482673,0.038749099,0.334383875,-0.578706622,-0.296995044,0.55241094,1.042650948,3.120153805
0.735271573,-0.524741113,-0.428978324,-0.370618224,0.218482673,0.038749099,0.334383875,-0.578706622,-0.296995044,0.55241094,1.042650948,3.120153805
0.735271573,-0.524741113,-0.428978324,-0.370618224,0.218482673,0.038749099,0.334383875,-0.578706622,-0.296995044,0.55241094,1.042650948,3.120153805
0.733676016,-0.526028454,-0.430131704,-0.320820391,0.580503285,-0.373107314,0.874540627,-0.258717895,-0.395624459,0.553923978,1.040534136,3.107191353
0.733676016,-0.526028454,-0.430131704,-0.320820391,0.580503285,-0.373107314,0.874540627,-0.258717895,-0.395624459,0.553923978,1.040534136,3.107191353
0.733676016,-0.526028454,-0.430131704,-0.320820391,0.580503285,-0.373107314,0.874540627,-0.258717895,-0.395624459,0.553923978,1.040534136,3.107191353
0.733676016,-0.526028454,-0.430131704,-0.320820391,0.580503285,-0.373107314,0.874540627,-0.258717895,-0.395624459,0.553923978,1.040534136,3.107191353
0.733676016,-0.526028454,-0.430131704,-0.320820391,0.580503285,-0.373107314,0.874540627,-0.258717895,-0.395624459,0.553923978,1.040534136,3.107191353
0.747313499,-0.532934785,-0.3968665,-0.185150266,-0.146568954,-0.0849154,0.839203835,0.624785841,-0.287764847,0.562065173,1.082612437,3.04903135
0.747313499,-0.532934785,-0.3968665,-0.185150266,-0.146568954,-0.0849154,0.839203835,0.624785841,-0.287764847,0.562065173,1.082612437,3.04903135
0.747313499,-0.532934785,-0.3968665,-0.185150266,-0.146568954,-0.0849154,0.839203835,0.624785841,-0.287764847,0.562065173,1.082612437,3.04903135
0.754566431,-0.491698176,-0.434582889,-0.266026735,-0.133850664,0.307354391,-1.432529569,0.21558854,0.203286335,0.514038906,1.048257998,3.093670142
0.754566431,-0.491698176,-0.434582889,-0.266026735,-0.133850664,0.307354391,-1.432529569,0.21558854,0.203286335,0.514038906,1.048257998,3.093670142
0.754566431,-0.491698176,-0.434582889,-0.266026735,-0.133850664,0.307354391,-1.432529569,0.21558854,0.203286335,0.514038906,1.048257998,3.093670142
0.750277817,-0.481270492,-0.453278959,-0.187610865,-0.124365628,0.101837814,-1.985967994,0.426663309,0.955015838,0.502103517,1.02733228,-3.115766137
0.750277817,-0.481270492,-0.453278959,-0.187610865,-0.124365628,0.101837814,-1.985967994,0.426663309,0.955015838,0.502103517,1.02733228,-3.115766137
0.750277817,-0.481270492,-0.453278959,-0.187610865,-0.124365628,0.101837814,-1.985967994,0.426663309,0.955015838,0.502103517,1.02733228,-3.115766137
0.750277817,-0.481270492,-0.453278959,-0.187610865,-0.124365628,0.101837814,-1.985967994,0.426663309,0.955015838,0.502103517,1.02733228,-3.115766137
0.750277817,-0.481270492,-0.453278959,-0.187610865,-0.124365628,0.101837814,-1.985967994,0.426663309,0.955015838,0.502103517,1.02733228,-3.115766137
0.745386779,-0.475435674,-0.467289507,-0.194331765,-0.126629889,-0.017955899,-2.584606886,0.657834947,1.107281566,0.495459174,1.010825588,-3.058306391
0.739627957,-0.449965209,-0.500481427,-0.08311975,-0.010101855,0.19115442,-3.233915091,0.89915067,1.024037957,0.466726374,0.975902722,-2.917998281
0.739627957,-0.449965209,-0.500481427,-0.08311975,-0.010101855,0.19115442,-3.233915091,0.89915067,1.024037957,0.466726374,0.975902722,-2.917998281
0.739627957,-0.449965209,-0.500481427,-0.08311975,-0.010101855,0.19115442,-3.233915091,0.89915067,1.024037957,0.466726374,0.975902722,-2.917998281
0.741818488,-0.433950484,-0.511265457,0.101136863,-0.127373934,0.122760594,-2.705904722,1.245648861,0.94770813,0.448873029,0.967351699,-2.849771344
0.741818488,-0.433950484,-0.511265457,0.101136863,-0.127373934,0.122760594,-2.705904722,1.245648861,0.94770813,0.448873029,0.967351699,-2.849771344
0.741818488,-0.433950484,-0.511265457,0.101136863,-0.127373934,0.122760594,-2.705904722,1.245648861,0.94770813,0.448873029,0.967351699,-2.849771344
0.753151536,-0.426535785,-0.50082916,0.264715254,0.016380191,-0.035960674,-0.173631966,0.422385395,0.275204182,0.440659216,0.983963752,-2.77324841
0.753151536,-0.426535785,-0.50082916,0.264715254,0.016380191,-0.035960674,-0.173631966,0.422385395,0.275204182,0.440659216,0.983963752,-2.77324841
0.753151536,-0.426535785,-0.50082916,0.264715254,0.016380191,-0.035960674,-0.173631966,0.422385395,0.275204182,0.440659216,0.983963752,-2.77324841
0.753151536,-0.426535785,-0.50082916,0.264715254,0.016380191,-0.035960674,-0.173631966,0.422385395,0.275204182,0.440659216,0.983963752,-2.77324841
0.753151536,-0.426535785,-0.50082916,0.264715254,0.016380191,-0.035960674,-0.173631966,0.422385395,0.275204182,0.440659216,0.983963752,-2.77324841
0.753151536,-0.426535785,-0.50082916,0.264715254,0.016380191,-0.035960674,-0.173631966,0.422385395,0.275204182,0.440659216,0.983963752,-2.77324841
0.755378008,-0.426093847,-0.497843385,0.26088661,-0.051490307,0.063668907,-0.355612576,0.219204396,0.025740676,0.440170654,0.988074717,-2.766791822
0.755378008,-0.426093847,-0.497843385,0.26088661,-0.051490307,0.063668907,-0.355612576,0.219204396,0.025740676,0.440170654,0.988074717,-2.766791822
0.755378008,-0.426093847,-0.497843385,0.26088661,-0.051490307,0.063668907,-0.355612576,0.219204396,0.025740676,0.440170654,0.988074717,-2.766791822
0.755378008,-0.426093847,-0.497843385,0.26088661,-0.051490307,0.063668907,-0.355612576,0.219204396,0.025740676,0.440170654,0.988074717,-2.766791822
0.755378008,-0.426093847,-0.497843385,0.26088661,-0.051490307,0.063668907,-0.355612576,0.219204396,0.025740676,0.440170654,0.988074717,-2.766791822
0.755378008,-0.426093847,-0.497843385,0.26088661,-0.051490307,0.063668907,-0.355612576,0.219204396,0.025740676,0.440170654,0.988074717,-2.766791822
0.756163538,-0.421025693,-0.500953197,0.254989386,0.004507184,0.072760165,-0.278674126,-0.269431084,-0.212818101,0.434575838,0.985688616,-2.760873737
0.756163538,-0.421025693,-0.500953197,0.254989386,0.004507184,0.072760165,-0.278674126,-0.269431084,-0.212818101,0.434575838,0.985688616,-2.760873737
0.756163538,-0.421025693,-0.500953197,0.254989386,0.004507184,0.072760165,-0.278674126,-0.269431084,-0.212818101,0.434575838,0.985688616,-2.760873737
0.756163538,-0.421025693,-0.500953197,0.254989386,0.004507184,0.072760165,-0.278674126,-0.269431084,-0.212818101,0.434575838,0.985688616,-2.760873737
0.756163538,-0.421025693,-0.500953197,0.254989386,0.004507184,0.072760165,-0.278674126,-0.269431084,-0.212818101,0.434575838,0.985688616,-2.760873737
0.756163538,-0.421025693,-0.500953197,0.254989386,0.004507184,0.072760165,-0.278674126,-0.269431084,-0.212818101,0.434575838,0.985688616,-2.760873737
0.744832277,-0.424321949,-0.514952183,-0.002051115,0.1824404,0.001035213,1.614217043,-1.025362968,-0.262695104,0.43821296,0.965888085,-2.79085852
0.737451732,-0.440239787,-0.512205005,-0.09612608,0.053765833,0.107068062,1.916630983,-0.754662275,-0.199166417,0.455865727,0.963730263,-2.827574515
0.737451732,-0.440239787,-0.512205005,-0.09612608,0.053765833,0.107068062,1.916630983,-0.754662275,-0.199166417,0.455865727,0.963730263,-2.827574515
0.737451732,-0.440239787,-0.512205005,-0.09612608,0.053765833,0.107068062,1.916630983,-0.754662275,-0.199166417,0.455865727,0.963730263,-2.827574515
0.737451732,-0.440239787,-0.512205005,-0.09612608,0.053765833,0.107068062,1.916630983,-0.754662275,-0.199166417,0.455865727,0.963730263,-2.827574515
0.737451732,-0.440239787,-0.512205005,-0.09612608,0.053765833,0.107068062,1.916630983,-0.754662275,-0.199166417,0.455865727,0.963730263,-2.827574515
0.732768655,-0.453773409,-0.507089615,-0.048443615,-0.154609084,0.093468785,1.266671062,-0.570269883,-0.205935001,0.470995265,0.965447038,-2.859832166
0.732768655,-0.453773409,-0.507089615,-0.048443615,-0.154609084,0.093468785,1.266671062,-0.570269883,-0.205935001,0.470995265,0.965447038,-2.859832166
0.732768655,-0.453773409,-0.507089615,-0.048443615,-0.154609084,0.093468785,1.266671062,-0.570269883,-0.205935001,0.470995265,0.965447038,-2.859832166
0.732768655,-0.453773409,-0.507089615,-0.048443615,-0.154609084,0.093468785,1.266671062,-0.570269883,-0.205935001,0.470995265,0.965447038,-2.859832166
0.732768655,-0.453773409,-0.507089615,-0.048443615,-0.154609084,0.093468785,1.266671062,-0.570269883,-0.205935001,0.470995265,0.965447038,-2.859832166
0.732768655,-0.453773409,-0.507089615,-0.048443615,-0.154609084,0.093468785,1.266671062,-0.570269883,-0.205935001,0.470995265,0.965447038,-2.859832166
0.725919962,-0.460119039,-0.511205196,-0.171706617,-0.026742458,0.135548234,0.086529411,-0.378600508,-0.228704602,0.478129262,0.957245743,-2.891569863
0.725919962,-0.460119039,-0.511205196,-0.171706617,-0.026742458,0.135548234,0.086529411,-0.378600508,-0.228704602,0.478129262,0.957245743,-2.891569863
0.725919962,-0.460119039,-0.511205196,-0.171706617,-0.026742458,0.135548234,0.086529411,-0.378600508,-0.228704602,0.478129262,0.957245743,-2.891569863
0.725919962,-0.460119039,-0.511205196,-0.171706617,-0.026742458,0.135548234,0.086529411,-0.378600508,-0.228704602,0.478129262,0.957245743,-2.891569863
0.725919962,-0.460119039,-0.511205196,-0.171706617,-0.026742458,0.135548234,0.086529411,-0.378600508,-0.228704602,0.478129262,0.957245743,-2.891569863
0.725919962,-0.460119039,-0.511205196,-0.171706617,-0.026742458,0.135548234,0.086529411,-0.378600508,-0.228704602,0.478129262,0.957245743,-2.891569863
0.726637244,-0.454039425,-0.515602946,-0.28076154,-0.186905235,0.02986896,-0.785024107,0.154747203,-0.126818553,0.471293804,0.953673712,-2.888077638
0.726637244,-0.454039425,-0.515602946,-0.28076154,-0.186905235,0.02986896,-0.785024107,0.154747203,-0.126818553,0.471293804,0.953673712,-2.888077638
0.726637244,-0.454039425,-0.515602946,-0.28076154,-0.186905235,0.02986896,-0.785024107,0.154747203,-0.126818553,0.471293804,0.953673712,-2.888077638
0.726637244,-0.454039425,-0.515602946,-0.28076154,-0.186905235,0.02986896,-0.785024107,0.154747203,-0.126818553,0.471293804,0.953673712,-2.888077638
0.726637244,-0.454039425,-0.515602946,-0.28076154,-0.186905235,0.02986896,-0.785024107,0.154747203,-0.126818553,0.471293804,0.953673712,-2.888077638
0.726637244,-0.454039425,-0.515602946,-0.28076154,-0.186905235,0.02986896,-0.785024107,0.154747203,-0.126818553,0.471293804,0.953673712,-2.888077638
0.726637244,-0.454039425,-0.515602946,-0.28076154,-0.186905235,0.02986896,-0.785024107,0.154747203,-0.126818553,0.471293804,0.953673712,-2.888077638
0.729539871,-0.444009095,-0.520218551,-0.311557293,-0.330236346,0.010757148,-1.444130421,0.58397603,0.329088956,0.460068057,0.951347251,-2.867079711
0.729539871,-0.444009095,-0.520218551,-0.311557293,-0.330236346,0.010757148,-1.444130421,0.58397603,0.329088956,0.460068057,0.951347251,-2.867079711
0.729539871,-0.444009095,-0.520218551,-0.311557293,-0.330236346,0.010757148,-1.444130421,0.58397603,0.329088956,0.460068057,0.951347251,-2.867079711
0.729539871,-0.444009095,-0.520218551,-0.311557293,-0.330236346,0.010757148,-1.444130421,0.58397603,0.329088956,0.460068057,0.951347251,-2.867079711
0.729539871,-0.444009095,-0.520218551,-0.311557293,-0.330236346,0.010757148,-1.444130421,0.58397603,0.329088956,0.460068057,0.951347251,-2.867079711
0.729539871,-0.444009095,-0.520218551,-0.311557293,-0.330236346,0.010757148,-1.444130421,0.58397603,0.329088956,0.460068057,0.951347251,-2.867079711
0.729539871,-0.444009095,-0.520218551,-0.311557293,-0.330236346,0.010757148,-1.444130421,0.58397603,0.329088956,0.460068057,0.951347251,-2.867079711
0.734128773,-0.431102693,-0.524600267,-0.2379601,-0.119342089,0.037035227,-2.341684341,1.025376201,0.54045707,0.44571451,0.950346103,-2.826950049
0.734128773,-0.431102693,-0.524600267,-0.2379601,-0.119342089,0.037035227,-2.341684341,1.025376201,0.54045707,0.44571451,0.950346103,-2.826950049
0.734128773,-0.431102693,-0.524600267,-0.2379601,-0.119342089,0.037035227,-2.341684341,1.025376201,0.54045707,0.44571451,0.950346103,-2.826950049
0.734128773,-0.431102693,-0.524600267,-0.2379601,-0.119342089,0.037035227,-2.341684341,1.025376201,0.54045707,0.44571451,0.950346103,-2.826950049
0.740803123,-0.4108845,-0.531398714,-0.126302898,-0.04571861,0.015116453,-3.105197191,1.161692739,0.661950529,0.423424021,0.948535319,-2.7703446
0.740803123,-0.4108845,-0.531398714,-0.126302898,-0.04571861,0.015116453,-3.105197191,1.161692739,0.661950529,0.423424021,0.948535319,-2.7703446
0.747193515,-0.385597616,-0.541309834,-0.070254147,-0.118933439,0.018817365,-3.725909472,1.120248675,0.844667137,0.395855456,0.943843889,-2.700251576
0.747193515,-0.385597616,-0.541309834,-0.070254147,-0.118933439,0.018817365,-3.725909472,1.120248675,0.844667137,0.395855456,0.943843889,-2.700251576
0.747193515,-0.385597616,-0.541309834,-0.070254147,-0.118933439,0.018817365,-3.725909472,1.120248675,0.844667137,0.395855456,0.943843889,-2.700251576
0.747193515,-0.385597616,-0.541309834,-0.070254147,-0.118933439,0.018817365,-3.725909472,1.120248675,0.844667137,0.395855456,0.943843889,-2.700251576
0.747193515,-0.385597616,-0.541309834,-0.070254147,-0.118933439,0.018817365,-3.725909472,1.120248675,0.844667137,0.395855456,0.943843889,-2.700251576
0.747193515,-0.385597616,-0.541309834,-0.070254147,-0.118933439,0.018817365,-3.725909472,1.120248675,0.844667137,0.395855456,0.943843889,-2.700251576
0.747193515,-0.385597616,-0.541309834,-0.070254147,-0.118933439,0.018817365,-3.725909472,1.120248675,0.844667137,0.395855456,0.943843889,-2.700251576
0.753205419,-0.353610277,-0.55465436,-0.082430601,-0.126888275,0.004787624,-4.470123768,1.198819041,0.794713497,0.361427928,0.93606148,-2.618537322
0.753205419,-0.353610277,-0.55465436,-0.082430601,-0.126888275,0.004787624,-4.470123768,1.198819041,0.794713497,0.361427928,0.93606148,-2.618537322
0.753205419,-0.353610277,-0.55465436,-0.082430601,-0.126888275,0.004787624,-4.470123768,1.198819041,0.794713497,0.361427928,0.93606148,-2.618537322
0.753205419,-0.353610277,-0.55465436,-0.082430601,-0.126888275,0.004787624,-4.470123768,1.198819041,0.794713497,0.361427928,0.93606148,-2.618537322
0.753205419,-0.353610277,-0.55465436,-0.082430601,-0.126888275,0.004787624,-4.470123768,1.198819041,0.794713497,0.361427928,0.93606148,-2.618537322
0.753205419,-0.353610277,-0.55465436,-0.082430601,-0.126888275,0.004787624,-4.470123768,1.198819041,0.794713497,0.361427928,0.93606148,-2.618537322
0.763599277,-0.312612057,-0.564968824,-0.045614004,-0.073968619,-0.045368612,-4.609296799,1.428188682,0.631081641,0.317941676,0.93380609,-2.531128271
0.763599277,-0.312612057,-0.564968824,-0.045614004,-0.073968619,-0.045368612,-4.609296799,1.428188682,0.631081641,0.317941676,0.93380609,-2.531128271
0.763599277,-0.312612057,-0.564968824,-0.045614004,-0.073968619,-0.045368612,-4.609296799,1.428188682,0.631081641,0.317941676,0.93380609,-2.531128271
0.763599277,-0.312612057,-0.564968824,-0.045614004,-0.073968619,-0.045368612,-4.609296799,1.428188682,0.631081641,0.317941676,0.93380609,-2.531128271
0.763599277,-0.312612057,-0.564968824,-0.045614004,-0.073968619,-0.045368612,-4.609296799,1.428188682,0.631081641,0.317941676,0.93380609,-2.531128271
0.763599277,-0.312612057,-0.564968824,-0.045614004,-0.073968619,-0.045368612,-4.609296799,1.428188682,0.631081641,0.317941676,0.93380609,-2.531128271
0.774876416,-0.273112863,-0.570066571,-0.023611605,0.11257574,-0.010500789,-3.736737728,1.112300992,0.551193595,0.276627448,0.936518599,-2.452102111
0.774876416,-0.273112863,-0.570066571,-0.023611605,0.11257574,-0.010500789,-3.736737728,1.112300992,0.551193595,0.276627448,0.936518599,-2.452102111
0.774876416,-0.273112863,-0.570066571,-0.023611605,0.11257574,-0.010500789,-3.736737728,1.112300992,0.551193595,0.276627448,0.936518599,-2.452102111
0.774876416,-0.273112863,-0.570066571,-0.023611605,0.11257574,-0.010500789,-3.736737728,1.112300992,0.551193595,0.276627448,0.936518599,-2.452102111
0.774876416,-0.273112863,-0.570066571,-0.023611605,0.11257574,-0.010500789,-3.736737728,1.112300992,0.551193595,0.276627448,0.936518599,-2.452102111
0.774876416,-0.273112863,-0.570066571,-0.023611605,0.11257574,-0.010500789,-3.736737728,1.112300992,0.551193595,0.276627448,0.936518599,-2.452102111
0.774876416,-0.273112863,-0.570066571,-0.023611605,0.11257574,-0.010500789,-3.736737728,1.112300992,0.551193595,0.276627448,0.936518599,-2.452102111
0.782879651,-0.248821393,-0.570252061,-0.046186805,0.172573701,0.040603399,-1.749808073,0.764554739,0.420788825,0.251463186,0.941261045,-2.398401117
0.782879651,-0.248821393,-0.570252061,-0.046186805,0.172573701,0.040603399,-1.749808073,0.764554739,0.420788825,0.251463186,0.941261045,-2.398401117
0.782879651,-0.248821393,-0.570252061,-0.046186805,0.172573701,0.040603399,-1.749808073,0.764554739,0.420788825,0.251463186,0.941261045,-2.398401117
0.782879651,-0.248821393,-0.570252061,-0.046186805,0.172573701,0.040603399,-1.749808073,0.764554739,0.420788825,0.251463186,0.941261045,-2.398401117
0.782879651,-0.248821393,-0.570252061,-0.046186805,0.172573701,0.040603399,-1.749808073,0.764554739,0.420788825,0.251463186,0.941261045,-2.398401117
0.78847748,-0.247500986,-0.563068807,-0.109569669,0.055545911,0.007937908,0.14847976,0.649352014,0.620969296,0.250100138,0.950655529,-2.381997453
0.78847748,-0.247500986,-0.563068807,-0.109569669,0.055545911,0.007937908,0.14847976,0.649352014,0.620969296,0.250100138,0.950655529,-2.381997453
0.78847748,-0.247500986,-0.563068807,-0.109569669,0.055545911,0.007937908,0.14847976,0.649352014,0.620969296,0.250100138,0.950655529,-2.381997453
0.78847748,-0.247500986,-0.563068807,-0.109569669,0.055545911,0.007937908,0.14847976,0.649352014,0.620969296,0.250100138,0.950655529,-2.381997453
0.78847748,-0.247500986,-0.563068807,-0.109569669,0.055545911,0.007937908,0.14847976,0.649352014,0.620969296,0.250100138,0.950655529,-2.381997453
0.78847748,-0.247500986,-0.563068807,-0.109569669,0.055545911,0.007937908,0.14847976,0.649352014,0.620969296,0.250100138,0.950655529,-2.381997453
0.791825414,-0.263156623,-0.551145315,-0.080034673,-0.112148136,0.049801707,0.000231865,0.724919558,0.844507158,0.266292693,0.962730331,-2.375495129
0.791825414,-0.263156623,-0.551145315,-0.080034673,-0.112148136,0.049801707,0.000231865,0.724919558,0.844507158,0.266292693,0.962730331,-2.375495129
0.791825414,-0.263156623,-0.551145315,-0.080034673,-0.112148136,0.049801707,0.000231865,0.724919558,0.844507158,0.266292693,0.962730331,-2.375495129
0.791825414,-0.263156623,-0.551145315,-0.080034673,-0.112148136,0.049801707,0.000231865,0.724919558,0.844507158,0.266292693,0.962730331,-2.375495129
0.791825414,-0.263156623,-0.551145315,-0.080034673,-0.112148136,0.049801707,0.000231865,0.724919558,0.844507158,0.266292693,0.962730331,-2.375495129
0.791825414,-0.263156623,-0.551145315,-0.080034673,-0.112148136,0.049801707,0.000231865,0.724919558,0.844507158,0.266292693,0.962730331,-2.375495129
0.791825414,-0.263156623,-0.551145315,-0.080034673,-0.112148136,0.049801707,0.000231865,0.724919558,0.844507158,0.266292693,0.962730331,-2.375495129
0.791825414,-0.263156623,-0.551145315,-0.080034673,-0.112148136,0.049801707,0.000231865,0.724919558,0.844507158,0.266292693,0.962730331,-2.375495129
0.791825414,-0.263156623,-0.551145315,-0.080034673,-0.112148136,0.049801707,0.000231865,0.724919558,0.844507158,0.266292693,0.962730331,-2.375495129
0.791825414,-0.263156623,-0.551145315,-0.080034673,-0.112148136,0.049801707,0.000231865,0.724919558,0.844507158,0.266292693,0.962730331,-2.375495129
0.795896411,-0.268794566,-0.542492688,0.02957207,-0.091846406,0.112666965,-0.747795939,0.548577845,0.499606639,0.272141317,0.972518101,-2.361508358
0.795896411,-0.268794566,-0.542492688,0.02957207,-0.091846406,0.112666965,-0.747795939,0.548577845,0.499606639,0.272141317,0.972518101,-2.361508358
0.795896411,-0.268794566,-0.542492688,0.02957207,-0.091846406,0.112666965,-0.747795939,0.548577845,0.499606639,0.272141317,0.972518101,-2.361508358
0.795896411,-0.268794566,-0.542492688,0.02957207,-0.091846406,0.112666965,-0.747795939,0.548577845,0.499606639,0.272141317,0.972518101,-2.361508358
0.796110511,-0.268856704,-0.542147517,-0.039703548,-0.04742685,0.07017684,-0.908946991,0.112431139,0.700747669,0.272205847,0.972939422,-2.339387014
0.796110511,-0.268856704,-0.542147517,-0.039703548,-0.04742685,0.07017684,-0.908946991,0.112431139,0.700747669,0.272205847,0.972939422,-2.339387014
0.796110511,-0.268856704,-0.542147517,-0.039703548,-0.04742685,0.07017684,-0.908946991,0.112431139,0.700747669,0.272205847,0.972939422,-2.339387014
0.796110511,-0.268856704,-0.542147517,-0.039703548,-0.04742685,0.07017684,-0.908946991,0.112431139,0.700747669,0.272205847,0.972939422,-2.339387014
0.796110511,-0.268856704,-0.542147517,-0.039703548,-0.04742685,0.07017684,-0.908946991,0.112431139,0.700747669,0.272205847,0.972939422,-2.339387014
0.796110511,-0.268856704,-0.542147517,-0.039703548,-0.04742685,0.07017684,-0.908946991,0.112431139,0.700747669,0.272205847,0.972939422,-2.339387014
0.796110511,-0.268856704,-0.542147517,-0.039703548,-0.04742685,0.07017684,-0.908946991,0.112431139,0.700747669,0.272205847,0.972939422,-2.339387014
0.796110511,-0.268856704,-0.542147517,-0.039703548,-0.04742685,0.07017684,-0.908946991,0.112431139,0.700747669,0.272205847,0.972939422,-2.339387014
0.791689396,-0.273253173,-0.546406984,-0.197101772,0.087767929,0.093830228,-0.517999947,-0.121543959,0.883231878,0.27677328,0.966692453,-2.317714734
0.791689396,-0.273253173,-0.546406984,-0.197101772,0.087767929,0.093830228,-0.517999947,-0.121543959,0.883231878,0.27677328,0.966692453,-2.317714734
0.791689396,-0.273253173,-0.546406984,-0.197101772,0.087767929,0.093830228,-0.517999947,-0.121543959,0.883231878,0.27677328,0.966692453,-2.317714734
0.791689396,-0.273253173,-0.546406984,-0.197101772,0.087767929,0.093830228,-0.517999947,-0.121543959,0.883231878,0.27677328,0.966692453,-2.317714734
0.791689396,-0.273253173,-0.546406984,-0.197101772,0.087767929,0.093830228,-0.517999947,-0.121543959,0.883231878,0.27677328,0.966692453,-2.317714734
0.791689396,-0.273253173,-0.546406984,-0.197101772,0.087767929,0.093830228,-0.517999947,-0.121543959,0.883231878,0.27677328,0.966692453,-2.317714734
0.791689396,-0.273253173,-0.546406984,-0.197101772,0.087767929,0.093830228,-0.517999947,-0.121543959,0.883231878,0.27677328,0.966692453,-2.317714734
0.791689396,-0.273253173,-0.546406984,-0.197101772,0.087767929,0.093830228,-0.517999947,-0.121543959,0.883231878,0.27677328,0.966692453,-2.317714734
0.791689396,-0.273253173,-0.546406984,-0.197101772,0.087767929,0.093830228,-0.517999947,-0.121543959,0.883231878,0.27677328,0.966692453,-2.317714734
0.791689396,-0.273253173,-0.546406984,-0.197101772,0.087767929,0.093830228,-0.517999947,-0.121543959,0.883231878,0.27677328,0.966692453,-2.317714734
0.689231515,-0.450214446,-0.567685604,-0.310067117,0.148976296,0.257732987,1.107171297,-1.056584597,2.993288279,0.467005475,0.881800022,-2.227393605
0.689231515,-0.450214446,-0.567685604,-0.310067117,0.148976296,0.257732987,1.107171297,-1.056584597,2.993288279,0.467005475,0.881800022,-2.227393605
0.689231515,-0.450214446,-0.567685604,-0.310067117,0.148976296,0.257732987,1.107171297,-1.056584597,2.993288279,0.467005475,0.881800022,-2.227393605
0.689231515,-0.450214446,-0.567685604,-0.310067117,0.148976296,0.257732987,1.107171297,-1.056584597,2.993288279,0.467005475,0.881800022,-2.227393605
0.689231515,-0.450214446,-0.567685604,-0.310067117,0.148976296,0.257732987,1.107171297,-1.056584597,2.993288279,0.467005475,0.881800022,-2.227393605
0.689231515,-0.450214446,-0.567685604,-0.310067117,0.148976296,0.257732987,1.107171297,-1.056584597,2.993288279,0.467005475,0.881800022,-2.227393605
0.689231515,-0.450214446,-0.567685604,-0.310067117,0.148976296,0.257732987,1.107171297,-1.056584597,2.993288279,0.467005475,0.881800022,-2.227393605
0.689231515,-0.450214446,-0.567685604,-0.310067117,0.148976296,0.257732987,1.107171297,-1.056584597,2.993288279,0.467005475,0.881800022,-2.227393605
0.689231515,-0.450214446,-0.567685604,-0.310067117,0.148976296,0.257732987,1.107171297,-1.056584597,2.993288279,0.467005475,0.881800022,-2.227393605
0.603522062,-0.540188253,-0.586478949,-0.307975888,0.003949761,0.145819426,-0.812428296,-0.84059763,3.636876106,0.570660805,0.79971915,-2.136366141
0.603522062,-0.540188253,-0.586478949,-0.307975888,0.003949761,0.145819426,-0.812428296,-0.84059763,3.636876106,0.570660805,0.79971915,-2.136366141
0.603522062,-0.540188253,-0.586478949,-0.307975888,0.003949761,0.145819426,-0.812428296,-0.84059763,3.636876106,0.570660805,0.79971915,-2.136366141
0.603522062,-0.540188253,-0.586478949,-0.307975888,0.003949761,0.145819426,-0.812428296,-0.84059763,3.636876106,0.570660805,0.79971915,-2.136366141
0.603522062,-0.540188253,-0.586478949,-0.307975888,0.003949761,0.145819426,-0.812428296,-0.84059763,3.636876106,0.570660805,0.79971915,-2.136366141
0.603522062,-0.540188253,-0.586478949,-0.307975888,0.003949761,0.145819426,-0.812428296,-0.84059763,3.636876106,0.570660805,0.79971915,-2.136366141
0.549850225,-0.569287777,-0.611208677,-0.233643413,0.144087493,0.178117633,-1.548444867,-0.980024278,4.058124542,0.60563931,0.732600343,-2.048877697
0.549850225,-0.569287777,-0.611208677,-0.233643413,0.144087493,0.178117633,-1.548444867,-0.980024278,4.058124542,0.60563931,0.732600343,-2.048877697
0.549850225,-0.569287777,-0.611208677,-0.233643413,0.144087493,0.178117633,-1.548444867,-0.980024278,4.058124542,0.60563931,0.732600343,-2.048877697
0.549850225,-0.569287777,-0.611208677,-0.233643413,0.144087493,0.178117633,-1.548444867,-0.980024278,4.058124542,0.60563931,0.732600343,-2.048877697
0.484579384,-0.594234765,-0.641925156,-0.194251329,0.427091122,0.292437077,-1.282518744,-1.563767195,4.60120821,0.636313853,0.646619899,-1.9426855
0.484579384,-0.594234765,-0.641925156,-0.194251329,0.427091122,0.292437077,-1.282518744,-1.563767195,4.60120821,0.636313853,0.646619899,-1.9426855
0.484579384,-0.594234765,-0.641925156,-0.194251329,0.427091122,0.292437077,-1.282518744,-1.563767195,4.60120821,0.636313853,0.646619899,-1.9426855
0.484579384,-0.594234765,-0.641925156,-0.194251329,0.427091122,0.292437077,-1.282518744,-1.563767195,4.60120821,0.636313853,0.646619899,-1.9426855
0.484579384,-0.594234765,-0.641925156,-0.194251329,0.427091122,0.292437077,-1.282518744,-1.563767195,4.60120821,0.636313853,0.646619899,-1.9426855
0.484579384,-0.594234765,-0.641925156,-0.194251329,0.427091122,0.292437077,-1.282518744,-1.563767195,4.60120821,0.636313853,0.646619899,-1.9426855
0.484579384,-0.594234765,-0.641925156,-0.194251329,0.427091122,0.292437077,-1.282518744,-1.563767195,4.60120821,0.636313853,0.646619899,-1.9426855
0.484579384,-0.594234765,-0.641925156,-0.194251329,0.427091122,0.292437077,-1.282518744,-1.563767195,4.60120821,0.636313853,0.646619899,-1.9426855
0.484579384,-0.594234765,-0.641925156,-0.194251329,0.427091122,0.292437077,-1.282518744,-1.563767195,4.60120821,0.636313853,0.646619899,-1.9426855
0.400125802,-0.627509534,-0.667930365,-0.214823902,0.571709514,0.474341393,-0.175454393,-2.236198902,4.973161697,0.678350496,0.539722989,-1.831408672
0.400125802,-0.627509534,-0.667930365,-0.214823902,0.571709514,0.474341393,-0.175454393,-2.236198902,4.973161697,0.678350496,0.539722989,-1.831408672
0.400125802,-0.627509534,-0.667930365,-0.214823902,0.571709514,0.474341393,-0.175454393,-2.236198902,4.973161697,0.678350496,0.539722989,-1.831408672
0.400125802,-0.627509534,-0.667930365,-0.214823902,0.571709514,0.474341393,-0.175454393,-2.236198902,4.973161697,0.678350496,0.539722989,-1.831408672
0.400125802,-0.627509534,-0.667930365,-0.214823902,0.571709514,0.474341393,-0.175454393,-2.236198902,4.973161697,0.678350496,0.539722989,-1.831408672
0.400125802,-0.627509534,-0.667930365,-0.214823902,0.571709514,0.474341393,-0.175454393,-2.236198902,4.973161697,0.678350496,0.539722989,-1.831408672
0.203818724,-0.694371343,-0.690149426,-0.434242129,-0.018426239,0.146249175,-0.989636242,-1.849027276,5.757789612,0.767545945,0.287162761,-1.578182156
0.203818724,-0.694371343,-0.690149426,-0.434242129,-0.018426239,0.146249175,-0.989636242,-1.849027276,5.757789612,0.767545945,0.287162761,-1.578182156
0.203818724,-0.694371343,-0.690149426,-0.434242129,-0.018426239,0.146249175,-0.989636242,-1.849027276,5.757789612,0.767545945,0.287162761,-1.578182156
0.203818724,-0.694371343,-0.690149426,-0.434242129,-0.018426239,0.146249175,-0.989636242,-1.849027276,5.757789612,0.767545945,0.287162761,-1.578182156
0.203818724,-0.694371343,-0.690149426,-0.434242129,-0.018426239,0.146249175,-0.989636242,-1.849027276,5.757789612,0.767545945,0.287162761,-1.578182156
0.203818724,-0.694371343,-0.690149426,-0.434242129,-0.018426239,0.146249175,-0.989636242,-1.849027276,5.757789612,0.767545945,0.287162761,-1.578182156
0.203818724,-0.694371343,-0.690149426,-0.434242129,-0.018426239,0.146249175,-0.989636242,-1.849027276,5.757789612,0.767545945,0.287162761,-1.578182156
0.203818724,-0.694371343,-0.690149426,-0.434242129,-0.018426239,0.146249175,-0.989636242,-1.849027276,5.757789612,0.767545945,0.287162761,-1.578182156
0.203818724,-0.694371343,-0.690149426,-0.434242129,-0.018426239,0.146249175,-0.989636242,-1.849027276,5.757789612,0.767545945,0.287162761,-1.578182156
0.094515346,-0.686248302,-0.721200407,-0.284289092,-0.016890466,0.261009932,-2.462747574,-1.960591555,6.098986149,0.756318532,0.130310179,-1.406170352
0.094515346,-0.686248302,-0.721200407,-0.284289092,-0.016890466,0.261009932,-2.462747574,-1.960591555,6.098986149,0.756318532,0.130310179,-1.406170352
0.094515346,-0.686248302,-0.721200407,-0.284289092,-0.016890466,0.261009932,-2.462747574,-1.960591555,6.098986149,0.756318532,0.130310179,-1.406170352
-0.018284986,-0.657969415,-0.752822638,-0.100870848,0.271603048,0.313170552,-1.536963344,-2.611067057,5.708826542,0.718119043,-0.024283796,-1.242738838
-0.018284986,-0.657969415,-0.752822638,-0.100870848,0.271603048,0.313170552,-1.536963344,-2.611067057,5.708826542,0.718119043,-0.024283796,-1.242738838
-0.018284986,-0.657969415,-0.752822638,-0.100870848,0.271603048,0.313170552,-1.536963344,-2.611067057,5.708826542,0.718119043,-0.024283796,-1.242738838
-0.018284986,-0.657969415,-0.752822638,-0.100870848,0.271603048,0.313170552,-1.536963344,-2.611067057,5.708826542,0.718119043,-0.024283796,-1.242738838
-0.018284986,-0.657969415,-0.752822638,-0.100870848,0.271603048,0.313170552,-1.536963344,-2.611067057,5.708826542,0.718119043,-0.024283796,-1.242738838
-0.018284986,-0.657969415,-0.752822638,-0.100870848,0.271603048,0.313170552,-1.536963344,-2.611067057,5.708826542,0.718119043,-0.024283796,-1.242738838
-0.018284986,-0.657969415,-0.752822638,-0.100870848,0.271603048,0.313170552,-1.536963344,-2.611067057,5.708826542,0.718119043,-0.024283796,-1.242738838
-0.018284986,-0.657969415,-0.752822638,-0.100870848,0.271603048,0.313170552,-1.536963344,-2.611067057,5.708826542,0.718119043,-0.024283796,-1.242738838
-0.136269167,-0.640128434,-0.756086111,-0.17345342,0.049248517,0.182858586,0.019679105,-3.169494629,5.710586071,0.694665452,-0.178315402,-1.096334717
-0.136269167,-0.640128434,-0.756086111,-0.17345342,0.049248517,0.182858586,0.019679105,-3.169494629,5.710586071,0.694665452,-0.178315402,-1.096334717
-0.136269167,-0.640128434,-0.756086111,-0.17345342,0.049248517,0.182858586,0.019679105,-3.169494629,5.710586071,0.694665452,-0.178315402,-1.096334717
-0.136269167,-0.640128434,-0.756086111,-0.17345342,0.049248517,0.182858586,0.019679105,-3.169494629,5.710586071,0.694665452,-0.178315402,-1.096334717
-0.136269167,-0.640128434,-0.756086111,-0.17345342,0.049248517,0.182858586,0.019679105,-3.169494629,5.710586071,0.694665452,-0.178315402,-1.096334717
-0.136269167,-0.640128434,-0.756086111,-0.17345342,0.049248517,0.182858586,0.019679105,-3.169494629,5.710586071,0.694665452,-0.178315402,-1.096334717
-0.253294945,-0.618236899,-0.744059622,-0.296265095,-0.10717988,0.109857976,-0.102297567,-2.752411127,5.581165791,0.66649758,-0.328117543,-0.953889484
-0.253294945,-0.618236899,-0.744059622,-0.296265095,-0.10717988,0.109857976,-0.102297567,-2.752411127,5.581165791,0.66649758,-0.328117543,-0.953889484
-0.253294945,-0.618236899,-0.744059622,-0.296265095,-0.10717988,0.109857976,-0.102297567,-2.752411127,5.581165791,0.66649758,-0.328117543,-0.953889484
-0.253294945,-0.618236899,-0.744059622,-0.296265095,-0.10717988,0.109857976,-0.102297567,-2.752411127,5.581165791,0.66649758,-0.328117543,-0.953889484
-0.253294945,-0.618236899,-0.744059622,-0.296265095,-0.10717988,0.109857976,-0.102297567,-2.752411127,5.581165791,0.66649758,-0.328117543,-0.953889484
-0.253294945,-0.618236899,-0.744059622,-0.296265095,-0.10717988,0.109857976,-0.102297567,-2.752411127,5.581165791,0.66649758,-0.328117543,-0.953889484
-0.253294945,-0.618236899,-0.744059622,-0.296265095,-0.10717988,0.109857976,-0.102297567,-2.752411127,5.581165791,0.66649758,-0.328117543,-0.953889484
-0.253294945,-0.618236899,-0.744059622,-0.296265095,-0.10717988,0.109857976,-0.102297567,-2.752411127,5.581165791,0.66649758,-0.328117543,-0.953889484
-0.357450426,-0.575685799,-0.735401213,-0.313843906,0.023105443,0.073840499,-0.86045754,-2.309149265,5.547817707,0.613442646,-0.452434964,-0.83081021
-0.357450426,-0.575685799,-0.735401213,-0.313843906,0.023105443,0.073840499,-0.86045754,-2.309149265,5.547817707,0.613442646,-0.452434964,-0.83081021
-0.357450426,-0.575685799,-0.735401213,-0.313843906,0.023105443,0.073840499,-0.86045754,-2.309149265,5.547817707,0.613442646,-0.452434964,-0.83081021
-0.357450426,-0.575685799,-0.735401213,-0.313843906,0.023105443,0.073840499,-0.86045754,-2.309149265,5.547817707,0.613442646,-0.452434964,-0.83081021
-0.449381709,-0.523305476,-0.724021733,-0.241474211,-0.054040074,-0.12265861,-0.406076461,-2.603479147,4.788011551,0.550725381,-0.55548266,-0.729570464
-0.449381709,-0.523305476,-0.724021733,-0.241474211,-0.054040074,-0.12265861,-0.406076461,-2.603479147,4.788011551,0.550725381,-0.55548266,-0.729570464
-0.449381709,-0.523305476,-0.724021733,-0.241474211,-0.054040074,-0.12265861,-0.406076461,-2.603479147,4.788011551,0.550725381,-0.55548266,-0.729570464
-0.449381709,-0.523305476,-0.724021733,-0.241474211,-0.054040074,-0.12265861,-0.406076461,-2.603479147,4.788011551,0.550725381,-0.55548266,-0.729570464
-0.449381709,-0.523305476,-0.724021733,-0.241474211,-0.054040074,-0.12265861,-0.406076461,-2.603479147,4.788011551,0.550725381,-0.55548266,-0.729570464
-0.449381709,-0.523305476,-0.724021733,-0.241474211,-0.054040074,-0.12265861,-0.406076461,-2.603479147,4.788011551,0.550725381,-0.55548266,-0.729570464
-0.449381709,-0.523305476,-0.724021733,-0.241474211,-0.054040074,-0.12265861,-0.406076461,-2.603479147,4.788011551,0.550725381,-0.55548266,-0.729570464
-0.449381709,-0.523305476,-0.724021733,-0.241474211,-0.054040074,-0.12265861,-0.406076461,-2.603479147,4.788011551,0.550725381,-0.55548266,-0.729570464
-0.449381709,-0.523305476,-0.724021733,-0.241474211,-0.054040074,-0.12265861,-0.406076461,-2.603479147,4.788011551,0.550725381,-0.55548266,-0.729570464
-0.535769403,-0.48167032,-0.69350189,-0.528041661,-0.852679133,-0.459926009,0.715716481,-2.946527481,4.458845139,0.502559705,-0.657781669,-0.639806218
-0.535769403,-0.48167032,-0.69350189,-0.528041661,-0.852679133,-0.459926009,0.715716481,-2.946527481,4.458845139,0.502559705,-0.657781669,-0.639806218
-0.535769403,-0.48167032,-0.69350189,-0.528041661,-0.852679133,-0.459926009,0.715716481,-2.946527481,4.458845139,0.502559705,-0.657781669,-0.639806218
-0.535769403,-0.48167032,-0.69350189,-0.528041661,-0.852679133,-0.459926009,0.715716481,-2.946527481,4.458845139,0.502559705,-0.657781669,-0.639806218
-0.535769403,-0.48167032,-0.69350189,-0.528041661,-0.852679133,-0.459926009,0.715716481,-2.946527481,4.458845139,0.502559705,-0.657781669,-0.639806218
-0.535769403,-0.48167032,-0.69350189,-0.528041661,-0.852679133,-0.459926009,0.715716481,-2.946527481,4.458845139,0.502559705,-0.657781669,-0.639806218
-0.611217976,-0.446130872,-0.65374279,-0.62802285,-0.559360981,-0.236150801,1.582374215,-2.130553722,4.107138634,0.46243745,-0.751793317,-0.548894152
-0.611217976,-0.446130872,-0.65374279,-0.62802285,-0.559360981,-0.236150801,1.582374215,-2.130553722,4.107138634,0.46243745,-0.751793317,-0.548894152
-0.611217976,-0.446130872,-0.65374279,-0.62802285,-0.559360981,-0.236150801,1.582374215,-2.130553722,4.107138634,0.46243745,-0.751793317,-0.548894152
-0.611217976,-0.446130872,-0.65374279,-0.62802285,-0.559360981,-0.236150801,1.582374215,-2.130553722,4.107138634,0.46243745,-0.751793317,-0.548894152
-0.611217976,-0.446130872,-0.65374279,-0.62802285,-0.559360981,-0.236150801,1.582374215,-2.130553722,4.107138634,0.46243745,-0.751793317,-0.548894152
-0.611217976,-0.446130872,-0.65374279,-0.62802285,-0.559360981,-0.236150801,1.582374215,-2.130553722,4.107138634,0.46243745,-0.751793317,-0.548894152
-0.611217976,-0.446130872,-0.65374279,-0.62802285,-0.559360981,-0.236150801,1.582374215,-2.130553722,4.107138634,0.46243745,-0.751793317,-0.548894152
-0.663201094,-0.429396152,-0.613011539,-0.18481946,-0.198837459,0.120914459,2.8208251,-1.387775064,2.956056833,0.44382403,-0.824704859,-0.458886395
-0.663201094,-0.429396152,-0.613011539,-0.18481946,-0.198837459,0.120914459,2.8208251,-1.387775064,2.956056833,0.44382403,-0.824704859,-0.458886395
-0.663201094,-0.429396152,-0.613011539,-0.18481946,-0.198837459,0.120914459,2.8208251,-1.387775064,2.956056833,0.44382403,-0.824704859,-0.458886395
-0.663201094,-0.429396152,-0.613011539,-0.18481946,-0.198837459,0.120914459,2.8208251,-1.387775064,2.956056833,0.44382403,-0.824704859,-0.458886395
-0.663201094,-0.429396152,-0.613011539,-0.18481946,-0.198837459,0.120914459,2.8208251,-1.387775064,2.956056833,0.44382403,-0.824704859,-0.458886395
-0.663201094,-0.429396152,-0.613011539,-0.18481946,-0.198837459,0.120914459,2.8208251,-1.387775064,2.956056833,0.44382403,-0.824704859,-0.458886395
-0.757110298,-0.433524311,-0.488713324,-0.502622604,-0.802283645,-0.383267045,1.999597788,-0.943749845,2.153131008,0.448400058,-0.997592333,-0.208699481
-0.757110298,-0.433524311,-0.488713324,-0.502622604,-0.802283645,-0.383267045,1.999597788,-0.943749845,2.153131008,0.448400058,-0.997592333,-0.208699481
-0.757110298,-0.433524311,-0.488713324,-0.502622604,-0.802283645,-0.383267045,1.999597788,-0.943749845,2.153131008,0.448400058,-0.997592333,-0.208699481
-0.757110298,-0.433524311,-0.488713324,-0.502622604,-0.802283645,-0.383267045,1.999597788,-0.943749845,2.153131008,0.448400058,-0.997592333,-0.208699481
-0.757110298,-0.433524311,-0.488713324,-0.502622604,-0.802283645,-0.383267045,1.999597788,-0.943749845,2.153131008,0.448400058,-0.997592333,-0.208699481
-0.757110298,-0.433524311,-0.488713324,-0.502622604,-0.802283645,-0.383267045,1.999597788,-0.943749845,2.153131008,0.448400058,-0.997592333,-0.208699481
-0.757110298,-0.433524311,-0.488713324,-0.502622604,-0.802283645,-0.383267045,1.999597788,-0.943749845,2.153131008,0.448400058,-0.997592333,-0.208699481
-0.757110298,-0.433524311,-0.488713324,-0.502622604,-0.802283645,-0.383267045,1.999597788,-0.943749845,2.153131008,0.448400058,-0.997592333,-0.208699481
-0.757110298,-0.433524311,-0.488713324,-0.502622604,-0.802283645,-0.383267045,1.999597788,-0.943749845,2.153131008,0.448400058,-0.997592333,-0.208699481
-0.783790708,-0.415839732,-0.461247414,-0.252019048,-0.527228355,-0.301678658,1.241078734,-0.997106314,1.913143516,0.428865949,-1.038888364,-0.156053883
-0.783790708,-0.415839732,-0.461247414,-0.252019048,-0.527228355,-0.301678658,1.241078734,-0.997106314,1.913143516,0.428865949,-1.038888364,-0.156053883
-0.783790708,-0.415839732,-0.461247414,-0.252019048,-0.527228355,-0.301678658,1.241078734,-0.997106314,1.913143516,0.428865949,-1.038888364,-0.156053883
-0.783790708,-0.415839732,-0.461247414,-0.252019048,-0.527228355,-0.301678658,1.241078734,-0.997106314,1.913143516,0.428865949,-1.038888364,-0.156053883
-0.783790708,-0.415839732,-0.461247414,-0.252019048,-0.527228355,-0.301678658,1.241078734,-0.997106314,1.913143516,0.428865949,-1.038888364,-0.156053883
-0.783790708,-0.415839732,-0.461247414,-0.252019048,-0.527228355,-0.301678658,1.241078734,-0.997106314,1.913143516,0.428865949,-1.038888364,-0.156053883
-0.783790708,-0.415839732,-0.461247414,-0.252019048,-0.527228355,-0.301678658,1.241078734,-0.997106314,1.913143516,0.428865949,-1.038888364,-0.156053883
-0.783790708,-0.415839732,-0.461247414,-0.252019048,-0.527228355,-0.301678658,1.241078734,-0.997106314,1.913143516,0.428865949,-1.038888364,-0.156053883
-0.807101905,-0.400698692,-0.433620811,-0.077340662,-0.262492716,-0.111760736,1.310464263,-1.102032423,1.466445088,0.412279302,-1.077789563,-0.113609002
-0.807101905,-0.400698692,-0.433620811,-0.077340662,-0.262492716,-0.111760736,1.310464263,-1.102032423,1.466445088,0.412279302,-1.077789563,-0.113609002
-0.807101905,-0.400698692,-0.433620811,-0.077340662,-0.262492716,-0.111760736,1.310464263,-1.102032423,1.466445088,0.412279302,-1.077789563,-0.113609002
-0.807101905,-0.400698692,-0.433620811,-0.077340662,-0.262492716,-0.111760736,1.310464263,-1.102032423,1.466445088,0.412279302,-1.077789563,-0.113609002
-0.807101905,-0.400698692,-0.433620811,-0.077340662,-0.262492716,-0.111760736,1.310464263,-1.102032423,1.466445088,0.412279302,-1.077789563,-0.113609002
-0.807101905,-0.400698692,-0.433620811,-0.077340662,-0.262492716,-0.111760736,1.310464263,-1.102032423,1.466445088,0.412279302,-1.077789563,-0.113609002
-0.825330377,-0.391647756,-0.406745374,-0.109054089,-0.153608471,-0.01377368,1.364428401,-0.895768225,0.998280644,0.402421739,-1.112903281,-0.075629469
-0.825330377,-0.391647756,-0.406745374,-0.109054089,-0.153608471,-0.01377368,1.364428401,-0.895768225,0.998280644,0.402421739,-1.112903281,-0.075629469
-0.825330377,-0.391647756,-0.406745374,-0.109054089,-0.153608471,-0.01377368,1.364428401,-0.895768225,0.998280644,0.402421739,-1.112903281,-0.075629469
-0.825330377,-0.391647756,-0.406745374,-0.109054089,-0.153608471,-0.01377368,1.364428401,-0.895768225,0.998280644,0.402421739,-1.112903281,-0.075629469
-0.825330377,-0.391647756,-0.406745374,-0.109054089,-0.153608471,-0.01377368,1.364428401,-0.895768225,0.998280644,0.402421739,-1.112903281,-0.075629469
-0.825330377,-0.391647756,-0.406745374,-0.109054089,-0.153608471,-0.01377368,1.364428401,-0.895768225,0.998280644,0.402421739,-1.112903281,-0.075629469
-0.825330377,-0.391647756,-0.406745374,-0.109054089,-0.153608471,-0.01377368,1.364428401,-0.895768225,0.998280644,0.402421739,-1.112903281,-0.075629469
-0.838222742,-0.388750345,-0.382433802,-0.12443614,-0.196041346,0.002975941,1.506952882,-0.69383657,0.801676631,0.399274872,-1.142762332,-0.039345115
-0.838222742,-0.388750345,-0.382433802,-0.12443614,-0.196041346,0.002975941,1.506952882,-0.69383657,0.801676631,0.399274872,-1.142762332,-0.039345115
-0.838222742,-0.388750345,-0.382433802,-0.12443614,-0.196041346,0.002975941,1.506952882,-0.69383657,0.801676631,0.399274872,-1.142762332,-0.039345115
-0.838222742,-0.388750345,-0.382433802,-0.12443614,-0.196041346,0.002975941,1.506952882,-0.69383657,0.801676631,0.399274872,-1.142762332,-0.039345115
-0.838222742,-0.388750345,-0.382433802,-0.12443614,-0.196041346,0.002975941,1.506952882,-0.69383657,0.801676631,0.399274872,-1.142762332,-0.039345115
-0.838222742,-0.388750345,-0.382433802,-0.12443614,-0.196041346,0.002975941,1.506952882,-0.69383657,0.801676631,0.399274872,-1.142762332,-0.039345115
-0.838222742,-0.388750345,-0.382433802,-0.12443614,-0.196041346,0.002975941,1.506952882,-0.69383657,0.801676631,0.399274872,-1.142762332,-0.039345115
-0.838222742,-0.388750345,-0.382433802,-0.12443614,-0.196041346,0.002975941,1.506952882,-0.69383657,0.801676631,0.399274872,-1.142762332,-0.039345115
-0.838222742,-0.388750345,-0.382433802,-0.12443614,-0.196041346,0.002975941,1.506952882,-0.69383657,0.801676631,0.399274872,-1.142762332,-0.039345115
-0.849643528,-0.385763735,-0.359572321,-0.08597672,-0.178977937,-0.069095135,1.385767937,-0.690858483,0.804878592,0.396035481,-1.1704481,-0.003182859
-0.849643528,-0.385763735,-0.359572321,-0.08597672,-0.178977937,-0.069095135,1.385767937,-0.690858483,0.804878592,0.396035481,-1.1704481,-0.003182859
-0.849643528,-0.385763735,-0.359572321,-0.08597672,-0.178977937,-0.069095135,1.385767937,-0.690858483,0.804878592,0.396035481,-1.1704481,-0.003182859
-0.860259414,-0.382710129,-0.336877525,-0.082410336,-0.060052812,-0.107231855,1.485501766,-0.713026166,0.673200846,0.392727979,-1.197552297,0.030853468
-0.860259414,-0.382710129,-0.336877525,-0.082410336,-0.060052812,-0.107231855,1.485501766,-0.713026166,0.673200846,0.392727979,-1.197552297,0.030853468
-0.860259414,-0.382710129,-0.336877525,-0.082410336,-0.060052812,-0.107231855,1.485501766,-0.713026166,0.673200846,0.392727979,-1.197552297,0.030853468
-0.860259414,-0.382710129,-0.336877525,-0.082410336,-0.060052812,-0.107231855,1.485501766,-0.713026166,0.673200846,0.392727979,-1.197552297,0.030853468
-0.860259414,-0.382710129,-0.336877525,-0.082410336,-0.060052812,-0.107231855,1.485501766,-0.713026166,0.673200846,0.392727979,-1.197552297,0.030853468
-0.860259414,-0.382710129,-0.336877525,-0.082410336,-0.060052812,-0.107231855,1.485501766,-0.713026166,0.673200846,0.392727979,-1.197552297,0.030853468
-0.869596004,-0.383779615,-0.310669869,-0.090972066,0.02120173,-0.078172565,2.05662179,-0.766437948,0.529287875,0.393885862,-1.227670541,0.071005481
-0.869596004,-0.383779615,-0.310669869,-0.090972066,0.02120173,-0.078172565,2.05662179,-0.766437948,0.529287875,0.393885862,-1.227670541,0.071005481
-0.869596004,-0.383779615,-0.310669869,-0.090972066,0.02120173,-0.078172565,2.05662179,-0.766437948,0.529287875,0.393885862,-1.227670541,0.071005481
-0.886416078,-0.390534163,-0.248494804,-0.126016796,-0.114133656,-0.010724247,1.784511089,-0.787627935,0.493913561,0.401211771,-1.297475584,0.168848279
-0.886416078,-0.390534163,-0.248494804,-0.126016796,-0.114133656,-0.010724247,1.784511089,-0.787627935,0.493913561,0.401211771,-1.297475584,0.168848279
-0.886416078,-0.390534163,-0.248494804,-0.126016796,-0.114133656,-0.010724247,1.784511089,-0.787627935,0.493913561,0.401211771,-1.297475584,0.168848279
-0.89377588,-0.389045328,-0.223177835,-0.108281016,-0.191534966,-0.068618715,1.036556005,-0.868228734,0.415380627,0.399595054,-1.326097923,0.20061943
-0.89377588,-0.389045328,-0.223177835,-0.108281016,-0.191534966,-0.068618715,1.036556005,-0.868228734,0.415380627,0.399595054,-1.326097923,0.20061943
-0.89377588,-0.389045328,-0.223177835,-0.108281016,-0.191534966,-0.068618715,1.036556005,-0.868228734,0.415380627,0.399595054,-1.326097923,0.20061943
-0.89377588,-0.389045328,-0.223177835,-0.108281016,-0.191534966,-0.068618715,1.036556005,-0.868228734,0.415380627,0.399595054,-1.326097923,0.20061943
-0.89377588,-0.389045328,-0.223177835,-0.108281016,-0.191534966,-0.068618715,1.036556005,-0.868228734,0.415380627,0.399595054,-1.326097923,0.20061943
-0.89377588,-0.389045328,-0.223177835,-0.108281016,-0.191534966,-0.068618715,1.036556005,-0.868228734,0.415380627,0.399595054,-1.326097923,0.20061943
-0.900539815,-0.38607195,-0.199940935,-0.076553881,-0.068470895,-0.10894537,0.73644352,-1.002464652,0.305178136,0.396369577,-1.352316842,0.220400489
-0.900539815,-0.38607195,-0.199940935,-0.076553881,-0.068470895,-0.10894537,0.73644352,-1.002464652,0.305178136,0.396369577,-1.352316842,0.220400489
-0.900539815,-0.38607195,-0.199940935,-0.076553881,-0.068470895,-0.10894537,0.73644352,-1.002464652,0.305178136,0.396369577,-1.352316842,0.220400489
-0.900539815,-0.38607195,-0.199940935,-0.076553881,-0.068470895,-0.10894537,0.73644352,-1.002464652,0.305178136,0.396369577,-1.352316842,0.220400489
-0.900539815,-0.38607195,-0.199940935,-0.076553881,-0.068470895,-0.10894537,0.73644352,-1.002464652,0.305178136,0.396369577,-1.352316842,0.220400489
-0.900539815,-0.38607195,-0.199940935,-0.076553881,-0.068470895,-0.10894537,0.73644352,-1.002464652,0.305178136,0.396369577,-1.352316842,0.220400489
-0.9059003,-0.385754883,-0.174750224,-0.046687722,0.029158264,-0.107494414,1.195465088,-0.991973519,0.013262862,0.39602591,-1.380234727,0.238932669
-0.9059003,-0.385754883,-0.174750224,-0.046687722,0.029158264,-0.107494414,1.195465088,-0.991973519,0.013262862,0.39602591,-1.380234727,0.238932669
-0.9059003,-0.385754883,-0.174750224,-0.046687722,0.029158264,-0.107494414,1.195465088,-0.991973519,0.013262862,0.39602591,-1.380234727,0.238932669
-0.9059003,-0.385754883,-0.174750224,-0.046687722,0.029158264,-0.107494414,1.195465088,-0.991973519,0.013262862,0.39602591,-1.380234727,0.238932669
-0.907393038,-0.3950454,-0.143446133,-0.119047463,0.161282033,-0.141606212,3.153380156,-0.545497537,-0.139697224,0.406117254,-1.41400785,0.285908788
-0.907393038,-0.3950454,-0.143446133,-0.119047463,0.161282033,-0.141606212,3.153380156,-0.545497537,-0.139697224,0.406117254,-1.41400785,0.285908788
-0.907393038,-0.3950454,-0.143446133,-0.119047463,0.161282033,-0.141606212,3.153380156,-0.545497537,-0.139697224,0.406117254,-1.41400785,0.285908788
-0.907393038,-0.3950454,-0.143446133,-0.119047463,0.161282033,-0.141606212,3.153380156,-0.545497537,-0.139697224,0.406117254,-1.41400785,0.285908788
-0.907393038,-0.3950454,-0.143446133,-0.119047463,0.161282033,-0.141606212,3.153380156,-0.545497537,-0.139697224,0.406117254,-1.41400785,0.285908788
-0.907650471,-0.404850572,-0.110755183,-0.126144826,0.187795579,-0.122707307,2.891567945,-0.227908328,-0.030869871,0.416815395,-1.449372569,0.355890928
-0.907650471,-0.404850572,-0.110755183,-0.126144826,0.187795579,-0.122707307,2.891567945,-0.227908328,-0.030869871,0.416815395,-1.449372569,0.355890928
-0.907650471,-0.404850572,-0.110755183,-0.126144826,0.187795579,-0.122707307,2.891567945,-0.227908328,-0.030869871,0.416815395,-1.449372569,0.355890928
-0.907690048,-0.408749104,-0.094987765,-0.120108306,-0.4147816,-0.144242764,0.594928622,0.181175813,-0.020243965,0.421083007,-1.466528046,0.3959578
-0.907690048,-0.408749104,-0.094987765,-0.120108306,-0.4147816,-0.144242764,0.594928622,0.181175813,-0.020243965,0.421083007,-1.466528046,0.3959578
-0.907690048,-0.408749104,-0.094987765,-0.120108306,-0.4147816,-0.144242764,0.594928622,0.181175813,-0.020243965,0.421083007,-1.466528046,0.3959578
-0.907679081,-0.406528652,-0.104179166,-0.163134038,-0.490549535,-0.304118514,-1.180676818,0.29493171,0.131032094,0.418651356,-1.456521044,0.384986728
-0.907483637,-0.403888434,-0.115531161,-0.033355117,0.049519569,-0.178676546,-0.457256883,0.097985126,-0.03902724,0.415763409,-1.444168145,0.365519167
-0.907483637,-0.403888434,-0.115531161,-0.033355117,0.049519569,-0.178676546,-0.457256883,0.097985126,-0.03902724,0.415763409,-1.444168145,0.365519167
-0.907483637,-0.403888434,-0.115531161,-0.033355117,0.049519569,-0.178676546,-0.457256883,0.097985126,-0.03902724,0.415763409,-1.444168145,0.365519167
-0.907483637,-0.403888434,-0.115531161,-0.033355117,0.049519569,-0.178676546,-0.457256883,0.097985126,-0.03902724,0.415763409,-1.444168145,0.365519167
-0.90712446,-0.405099332,-0.114102982,0.076210022,0.138712674,-0.096501827,0.223432139,-0.270229995,-0.090700395,0.417087484,-1.445668124,0.364663462
-0.90712446,-0.405099332,-0.114102982,0.076210022,0.138712674,-0.096501827,0.223432139,-0.270229995,-0.090700395,0.417087484,-1.445668124,0.364663462
-0.90712446,-0.405099332,-0.114102982,0.076210022,0.138712674,-0.096501827,0.223432139,-0.270229995,-0.090700395,0.417087484,-1.445668124,0.364663462
-0.90712446,-0.405099332,-0.114102982,0.076210022,0.138712674,-0.096501827,0.223432139,-0.270229995,-0.090700395,0.417087484,-1.445668124,0.364663462
-0.90712446,-0.405099332,-0.114102982,0.076210022,0.138712674,-0.096501827,0.223432139,-0.270229995,-0.090700395,0.417087484,-1.445668124,0.364663462
-0.90712446,-0.405099332,-0.114102982,0.076210022,0.138712674,-0.096501827,0.223432139,-0.270229995,-0.090700395,0.417087484,-1.445668124,0.364663462
-0.90712446,-0.405099332,-0.114102982,0.076210022,0.138712674,-0.096501827,0.223432139,-0.270229995,-0.090700395,0.417087484,-1.445668124,0.364663462
-0.907215297,-0.406579375,-0.107950754,-0.018441081,-0.098393768,0.006293833,-0.119314954,-0.276292413,-0.012577897,0.418706878,-1.452361873,0.366361843
-0.907215297,-0.406579375,-0.107950754,-0.018441081,-0.098393768,0.006293833,-0.119314954,-0.276292413,-0.012577897,0.418706878,-1.452361873,0.366361843
-0.907215297,-0.406579375,-0.107950754,-0.018441081,-0.098393768,0.006293833,-0.119314954,-0.276292413,-0.012577897,0.418706878,-1.452361873,0.366361843
-0.907215297,-0.406579375,-0.107950754,-0.018441081,-0.098393768,0.006293833,-0.119314954,-0.276292413,-0.012577897,0.418706878,-1.452361873,0.366361843
-0.907215297,-0.406579375,-0.107950754,-0.018441081,-0.098393768,0.006293833,-0.119314954,-0.276292413,-0.012577897,0.418706878,-1.452361873,0.366361843
-0.908330619,-0.40424785,-0.107326947,-0.062140703,-0.036409438,0.061730683,-0.524553955,-0.112094037,0.150828809,0.416156334,-1.453183188,0.359011221
-0.908330619,-0.40424785,-0.107326947,-0.062140703,-0.036409438,0.061730683,-0.524553955,-0.112094037,0.150828809,0.416156334,-1.453183188,0.359011221
-0.908330619,-0.40424785,-0.107326947,-0.062140703,-0.036409438,0.061730683,-0.524553955,-0.112094037,0.150828809,0.416156334,-1.453183188,0.359011221
-0.909903705,-0.399878383,-0.110329047,0.020929575,0.049354732,0.060170412,-0.60557586,-0.117678069,0.151184037,0.411384143,-1.450131845,0.346636601
-0.909903705,-0.399878383,-0.110329047,0.020929575,0.049354732,0.060170412,-0.60557586,-0.117678069,0.151184037,0.411384143,-1.450131845,0.346636601
-0.909903705,-0.399878383,-0.110329047,0.020929575,0.049354732,0.060170412,-0.60557586,-0.117678069,0.151184037,0.411384143,-1.450131845,0.346636601
-0.909903705,-0.399878383,-0.110329047,0.020929575,0.049354732,0.060170412,-0.60557586,-0.117678069,0.151184037,0.411384143,-1.450131845,0.346636601
-0.909903705,-0.399878383,-0.110329047,0.020929575,0.049354732,0.060170412,-0.60557586,-0.117678069,0.151184037,0.411384143,-1.450131845,0.346636601
-0.909903705,-0.399878383,-0.110329047,0.020929575,0.049354732,0.060170412,-0.60557586,-0.117678069,0.151184037,0.411384143,-1.450131845,0.346636601
-0.909903705,-0.399878383,-0.110329047,0.020929575,0.049354732,0.060170412,-0.60557586,-0.117678069,0.151184037,0.411384143,-1.450131845,0.346636601
-0.909903705,-0.399878383,-0.110329047,0.020929575,0.049354732,0.060170412,-0.60557586,-0.117678069,0.151184037,0.411384143,-1.450131845,0.346636601
-0.909903705,-0.399878383,-0.110329047,0.020929575,0.049354732,0.060170412,-0.60557586,-0.117678069,0.151184037,0.411384143,-1.450131845,0.346636601
-0.909903705,-0.399878383,-0.110329047,0.020929575,0.049354732,0.060170412,-0.60557586,-0.117678069,0.151184037,0.411384143,-1.450131845,0.346636601
-0.909903705,-0.399878383,-0.110329047,0.020929575,0.049354732,0.060170412,-0.60557586,-0.117678069,0.151184037,0.411384143,-1.450131845,0.346636601
-0.909903705,-0.399878383,-0.110329047,0.020929575,0.049354732,0.060170412,-0.60557586,-0.117678069,0.151184037,0.411384143,-1.450131845,0.346636601
-0.911187649,-0.396591365,-0.111590289,0.046124041,0.043992519,0.040252447,-0.448486239,-0.186324835,0.094309464,0.407800713,-1.448936273,0.335524659
-0.911187649,-0.396591365,-0.111590289,0.046124041,0.043992519,0.040252447,-0.448486239,-0.186324835,0.094309464,0.407800713,-1.448936273,0.335524659
-0.911187649,-0.396591365,-0.111590289,0.046124041,0.043992519,0.040252447,-0.448486239,-0.186324835,0.094309464,0.407800713,-1.448936273,0.335524659
-0.912245154,-0.394376189,-0.110797755,0.021928251,0.057265043,0.069306135,-0.234612554,-0.190683454,0.071365044,0.405388934,-1.449932202,0.328321225
-0.912245154,-0.394376189,-0.110797755,0.021928251,0.057265043,0.069306135,-0.234612554,-0.190683454,0.071365044,0.405388934,-1.449932202,0.328321225
-0.912245154,-0.394376189,-0.110797755,0.021928251,0.057265043,0.069306135,-0.234612554,-0.190683454,0.071365044,0.405388934,-1.449932202,0.328321225
-0.912245154,-0.394376189,-0.110797755,0.021928251,0.057265043,0.069306135,-0.234612554,-0.190683454,0.071365044,0.405388934,-1.449932202,0.328321225
-0.912245154,-0.394376189,-0.110797755,0.021928251,0.057265043,0.069306135,-0.234612554,-0.190683454,0.071365044,0.405388934,-1.449932202,0.328321225
-0.912245154,-0.394376189,-0.110797755,0.021928251,0.057265043,0.069306135,-0.234612554,-0.190683454,0.071365044,0.405388934,-1.449932202,0.328321225
-0.912245154,-0.394376189,-0.110797755,0.021928251,0.057265043,0.069306135,-0.234612554,-0.190683454,0.071365044,0.405388934,-1.449932202,0.328321225
-0.912245154,-0.394376189,-0.110797755,0.021928251,0.057265043,0.069306135,-0.234612554,-0.190683454,0.071365044,0.405388934,-1.449932202,0.328321225
-0.912245154,-0.394376189,-0.110797755,0.021928251,0.057265043,0.069306135,-0.234612554,-0.190683454,0.071365044,0.405388934,-1.449932202,0.328321225
-0.913281262,-0.392289817,-0.109663367,-0.005874574,0.031909108,0.068125844,-0.259142697,-0.115169041,0.109391153,0.403119635,-1.451292257,0.323919879
-0.913281262,-0.392289817,-0.109663367,-0.005874574,0.031909108,0.068125844,-0.259142697,-0.115169041,0.109391153,0.403119635,-1.451292257,0.323919879
-0.913281262,-0.392289817,-0.109663367,-0.005874574,0.031909108,0.068125844,-0.259142697,-0.115169041,0.109391153,0.403119635,-1.451292257,0.323919879
-0.913281262,-0.392289817,-0.109663367,-0.005874574,0.031909108,0.068125844,-0.259142697,-0.115169041,0.109391153,0.403119635,-1.451292257,0.323919879
-0.913281262,-0.392289817,-0.109663367,-0.005874574,0.031909108,0.068125844,-0.259142697,-0.115169041,0.109391153,0.403119635,-1.451292257,0.323919879
-0.913281262,-0.392289817,-0.109663367,-0.005874574,0.031909108,0.068125844,-0.259142697,-0.115169041,0.109391153,0.403119635,-1.451292257,0.323919879
-0.913281262,-0.392289817,-0.109663367,-0.005874574,0.031909108,0.068125844,-0.259142697,-0.115169041,0.109391153,0.403119635,-1.451292257,0.323919879
-0.913281262,-0.392289817,-0.109663367,-0.005874574,0.031909108,0.068125844,-0.259142697,-0.115169041,0.109391153,0.403119635,-1.451292257,0.323919879
-0.913281262,-0.392289817,-0.109663367,-0.005874574,0.031909108,0.068125844,-0.259142697,-0.115169041,0.109391153,0.403119635,-1.451292257,0.323919879
-0.915373147,-0.387829393,-0.10807474,-0.009184003,-0.016511828,0.038842142,-0.550762177,-0.058711685,0.175529584,0.398275507,-1.453274067,0.317107874
-0.915373147,-0.387829393,-0.10807474,-0.009184003,-0.016511828,0.038842142,-0.550762177,-0.058711685,0.175529584,0.398275507,-1.453274067,0.317107874
-0.915373147,-0.387829393,-0.10807474,-0.009184003,-0.016511828,0.038842142,-0.550762177,-0.058711685,0.175529584,0.398275507,-1.453274067,0.317107874
-0.917055488,-0.383274347,-0.110045239,0.003866136,-0.00208497,0.014689624,-0.587806582,-0.016822632,0.105199814,0.393338761,-1.451368923,0.30532292
-0.917055488,-0.383274347,-0.110045239,0.003866136,-0.00208497,0.014689624,-0.587806582,-0.016822632,0.105199814,0.393338761,-1.451368923,0.30532292
-0.917055488,-0.383274347,-0.110045239,0.003866136,-0.00208497,0.014689624,-0.587806582,-0.016822632,0.105199814,0.393338761,-1.451368923,0.30532292
-0.917055488,-0.383274347,-0.110045239,0.003866136,-0.00208497,0.014689624,-0.587806582,-0.016822632,0.105199814,0.393338761,-1.451368923,0.30532292
-0.917055488,-0.383274347,-0.110045239,0.003866136,-0.00208497,0.014689624,-0.587806582,-0.016822632,0.105199814,0.393338761,-1.451368923,0.30532292
-0.917055488,-0.383274347,-0.110045239,0.003866136,-0.00208497,0.014689624,-0.587806582,-0.016822632,0.105199814,0.393338761,-1.451368923,0.30532292
-0.917055488,-0.383274347,-0.110045239,0.003866136,-0.00208497,0.014689624,-0.587806582,-0.016822632,0.105199814,0.393338761,-1.451368923,0.30532292
-0.917055488,-0.383274347,-0.110045239,0.003866136,-0.00208497,0.014689624,-0.587806582,-0.016822632,0.105199814,0.393338761,-1.451368923,0.30532292
-0.918690145,-0.379523039,-0.109409653,0.010414124,0.071235865,0.019577682,-0.262512475,-0.040779293,0.056319308,0.389280712,-1.452261527,0.297527602
-0.918690145,-0.379523039,-0.109409653,0.010414124,0.071235865,0.019577682,-0.262512475,-0.040779293,0.056319308,0.389280712,-1.452261527,0.297527602
-0.918690145,-0.379523039,-0.109409653,0.010414124,0.071235865,0.019577682,-0.262512475,-0.040779293,0.056319308,0.389280712,-1.452261527,0.297527602
-0.918690145,-0.379523039,-0.109409653,0.010414124,0.071235865,0.019577682,-0.262512475,-0.040779293,0.056319308,0.389280712,-1.452261527,0.297527602
-0.919472575,-0.378519744,-0.106268182,-0.015933335,0.043926507,0.035738409,0.044064417,-0.034596242,-0.019942442,0.388196526,-1.455731692,0.296975399
-0.919472575,-0.378519744,-0.106268182,-0.015933335,0.043926507,0.035738409,0.044064417,-0.034596242,-0.019942442,0.388196526,-1.455731692,0.296975399
-0.919472575,-0.378519744,-0.106268182,-0.015933335,0.043926507,0.035738409,0.044064417,-0.034596242,-0.019942442,0.388196526,-1.455731692,0.296975399
-0.919472575,-0.378519744,-0.106268182,-0.015933335,0.043926507,0.035738409,0.044064417,-0.034596242,-0.019942442,0.388196526,-1.455731692,0.296975399
-0.919472575,-0.378519744,-0.106268182,-0.015933335,0.043926507,0.035738409,0.044064417,-0.034596242,-0.019942442,0.388196526,-1.455731692,0.296975399
-0.919472575,-0.378519744,-0.106268182,-0.015933335,0.043926507,0.035738409,0.044064417,-0.034596242,-0.019942442,0.388196526,-1.455731692,0.296975399
-0.919472575,-0.378519744,-0.106268182,-0.015933335,0.043926507,0.035738409,0.044064417,-0.034596242,-0.019942442,0.388196526,-1.455731692,0.296975399
-0.919472575,-0.378519744,-0.106268182,-0.015933335,0.043926507,0.035738409,0.044064417,-0.034596242,-0.019942442,0.388196526,-1.455731692,0.296975399
-0.919552147,-0.37901935,-0.103769869,-0.003478706,-0.006019354,0.039114535,-0.063602045,-0.030017542,0.013808383,0.388736342,-1.458423459,0.298284073
-0.919552147,-0.37901935,-0.103769869,-0.003478706,-0.006019354,0.039114535,-0.063602045,-0.030017542,0.013808383,0.388736342,-1.458423459,0.298284073
-0.919552147,-0.37901935,-0.103769869,-0.003478706,-0.006019354,0.039114535,-0.063602045,-0.030017542,0.013808383,0.388736342,-1.458423459,0.298284073
-0.919552147,-0.37901935,-0.103769869,-0.003478706,-0.006019354,0.039114535,-0.063602045,-0.030017542,0.013808383,0.388736342,-1.458423459,0.298284073