gravityX,gravityY,gravityZ,accelX,accelY,accelZ,rotRateX,rotRatY,rotRateZ,attPitch,attRoll,attYaw
-0.943929315,-0.326293916,-0.050297331,-0.003213584,-0.009887487,-0.027584255,0.056957036,0.14474462,-0.058744486,0.332380251,-1.51756161,0.319907014
-0.943929315,-0.326293916,-0.050297331,-0.003213584,-0.009887487,-0.027584255,0.056957036,0.14474462,-0.058744486,0.332380251,-1.51756161,0.319907014
-0.943929315,-0.326293916,-0.050297331,-0.003213584,-0.009887487,-0.027584255,0.056957036,0.14474462,-0.058744486,0.332380251,-1.51756161,0.319907014
-0.943929315,-0.326293916,-0.050297331,-0.003213584,-0.009887487,-0.027584255,0.056957036,0.14474462,-0.058744486,0.332380251,-1.51756161,0.319907014
-0.942642152,-0.327979952,-0.062088262,-0.008940816,-0.00872016,-0.014282823,-0.092160411,0.158817053,-0.066141151,0.334164458,-1.505025125,0.316195404
-0.942642152,-0.327979952,-0.062088262,-0.008940816,-0.00872016,-0.014282823,-0.092160411,0.158817053,-0.066141151,0.334164458,-1.505025125,0.316195404
-0.942642152,-0.327979952,-0.062088262,-0.008940816,-0.00872016,-0.014282823,-0.092160411,0.158817053,-0.066141151,0.334164458,-1.505025125,0.316195404
-0.942642152,-0.327979952,-0.062088262,-0.008940816,-0.00872016,-0.014282823,-0.092160411,0.158817053,-0.066141151,0.334164458,-1.505025125,0.316195404
-0.942642152,-0.327979952,-0.062088262,-0.008940816,-0.00872016,-0.014282823,-0.092160411,0.158817053,-0.066141151,0.334164458,-1.505025125,0.316195404
-0.942642152,-0.327979952,-0.062088262,-0.008940816,-0.00872016,-0.014282823,-0.092160411,0.158817053,-0.066141151,0.334164458,-1.505025125,0.316195404
-0.942642152,-0.327979952,-0.062088262,-0.008940816,-0.00872016,-0.014282823,-0.092160411,0.158817053,-0.066141151,0.334164458,-1.505025125,0.316195404
-0.942642152,-0.327979952,-0.062088262,-0.008940816,-0.00872016,-0.014282823,-0.092160411,0.158817053,-0.066141151,0.334164458,-1.505025125,0.316195404
-0.942642152,-0.327979952,-0.062088262,-0.008940816,-0.00872016,-0.014282823,-0.092160411,0.158817053,-0.066141151,0.334164458,-1.505025125,0.316195404
-0.941003978,-0.330942929,-0.070628889,-0.024372935,-0.023121685,-0.024129093,-0.162793607,0.147155374,-0.006870796,0.337302625,-1.495879851,0.311861021
-0.941003978,-0.330942929,-0.070628889,-0.024372935,-0.023121685,-0.024129093,-0.162793607,0.147155374,-0.006870796,0.337302625,-1.495879851,0.311861021
-0.941003978,-0.330942929,-0.070628889,-0.024372935,-0.023121685,-0.024129093,-0.162793607,0.147155374,-0.006870796,0.337302625,-1.495879851,0.311861021
-0.941003978,-0.330942929,-0.070628889,-0.024372935,-0.023121685,-0.024129093,-0.162793607,0.147155374,-0.006870796,0.337302625,-1.495879851,0.311861021
-0.941003978,-0.330942929,-0.070628889,-0.024372935,-0.023121685,-0.024129093,-0.162793607,0.147155374,-0.006870796,0.337302625,-1.495879851,0.311861021
-0.941003978,-0.330942929,-0.070628889,-0.024372935,-0.023121685,-0.024129093,-0.162793607,0.147155374,-0.006870796,0.337302625,-1.495879851,0.311861021
-0.941003978,-0.330942929,-0.070628889,-0.024372935,-0.023121685,-0.024129093,-0.162793607,0.147155374,-0.006870796,0.337302625,-1.495879851,0.311861021
-0.941003978,-0.330942929,-0.070628889,-0.024372935,-0.023121685,-0.024129093,-0.162793607,0.147155374,-0.006870796,0.337302625,-1.495879851,0.311861021
-0.941003978,-0.330942929,-0.070628889,-0.024372935,-0.023121685,-0.024129093,-0.162793607,0.147155374,-0.006870796,0.337302625,-1.495879851,0.311861021
-0.939953029,-0.332500696,-0.077017888,-0.037111878,-0.000430465,-0.047082901,-0.28016448,0.171556935,0.028037494,0.338953889,-1.489040949,0.306568496
-0.939953029,-0.332500696,-0.077017888,-0.037111878,-0.000430465,-0.047082901,-0.28016448,0.171556935,0.028037494,0.338953889,-1.489040949,0.306568496
-0.939953029,-0.332500696,-0.077017888,-0.037111878,-0.000430465,-0.047082901,-0.28016448,0.171556935,0.028037494,0.338953889,-1.489040949,0.306568496
-0.939953029,-0.332500696,-0.077017888,-0.037111878,-0.000430465,-0.047082901,-0.28016448,0.171556935,0.028037494,0.338953889,-1.489040949,0.306568496
-0.939953029,-0.332500696,-0.077017888,-0.037111878,-0.000430465,-0.047082901,-0.28016448,0.171556935,0.028037494,0.338953889,-1.489040949,0.306568496
-0.939953029,-0.332500696,-0.077017888,-0.037111878,-0.000430465,-0.047082901,-0.28016448,0.171556935,0.028037494,0.338953889,-1.489040949,0.306568496
-0.939953029,-0.332500696,-0.077017888,-0.037111878,-0.000430465,-0.047082901,-0.28016448,0.171556935,0.028037494,0.338953889,-1.489040949,0.306568496
-0.939953029,-0.332500696,-0.077017888,-0.037111878,-0.000430465,-0.047082901,-0.28016448,0.171556935,0.028037494,0.338953889,-1.489040949,0.306568496
-0.939953029,-0.332500696,-0.077017888,-0.037111878,-0.000430465,-0.047082901,-0.28016448,0.171556935,0.028037494,0.338953889,-1.489040949,0.306568496
-0.93968302,-0.332226187,-0.081374243,-0.056669116,-0.022586048,-0.156740248,-0.28240186,0.12835452,-0.004323589,0.338662844,-1.484414282,0.300641718
-0.93968302,-0.332226187,-0.081374243,-0.056669116,-0.022586048,-0.156740248,-0.28240186,0.12835452,-0.004323589,0.338662844,-1.484414282,0.300641718
-0.93968302,-0.332226187,-0.081374243,-0.056669116,-0.022586048,-0.156740248,-0.28240186,0.12835452,-0.004323589,0.338662844,-1.484414282,0.300641718
-0.93968302,-0.332226187,-0.081374243,-0.056669116,-0.022586048,-0.156740248,-0.28240186,0.12835452,-0.004323589,0.338662844,-1.484414282,0.300641718
-0.93968302,-0.332226187,-0.081374243,-0.056669116,-0.022586048,-0.156740248,-0.28240186,0.12835452,-0.004323589,0.338662844,-1.484414282,0.300641718
-0.93968302,-0.332226187,-0.081374243,-0.056669116,-0.022586048,-0.156740248,-0.28240186,0.12835452,-0.004323589,0.338662844,-1.484414282,0.300641718
-0.93968302,-0.332226187,-0.081374243,-0.056669116,-0.022586048,-0.156740248,-0.28240186,0.12835452,-0.004323589,0.338662844,-1.484414282,0.300641718
-0.93968302,-0.332226187,-0.081374243,-0.056669116,-0.022586048,-0.156740248,-0.28240186,0.12835452,-0.004323589,0.338662844,-1.484414282,0.300641718
-0.93968302,-0.332226187,-0.081374243,-0.056669116,-0.022586048,-0.156740248,-0.28240186,0.12835452,-0.004323589,0.338662844,-1.484414282,0.300641718
-0.93968302,-0.332226187,-0.081374243,-0.056669116,-0.022586048,-0.156740248,-0.28240186,0.12835452,-0.004323589,0.338662844,-1.484414282,0.300641718
-0.93968302,-0.332226187,-0.081374243,-0.056669116,-0.022586048,-0.156740248,-0.28240186,0.12835452,-0.004323589,0.338662844,-1.484414282,0.300641718
-0.93968302,-0.332226187,-0.081374243,-0.056669116,-0.022586048,-0.156740248,-0.28240186,0.12835452,-0.004323589,0.338662844,-1.484414282,0.300641718
-0.939000845,-0.333238453,-0.085026674,-0.084160626,-0.008298516,-0.120510578,-0.138699993,0.235543817,-0.191124246,0.339736271,-1.480492443,0.296420472
-0.939000845,-0.333238453,-0.085026674,-0.084160626,-0.008298516,-0.120510578,-0.138699993,0.235543817,-0.191124246,0.339736271,-1.480492443,0.296420472
-0.939000845,-0.333238453,-0.085026674,-0.084160626,-0.008298516,-0.120510578,-0.138699993,0.235543817,-0.191124246,0.339736271,-1.480492443,0.296420472
-0.939000845,-0.333238453,-0.085026674,-0.084160626,-0.008298516,-0.120510578,-0.138699993,0.235543817,-0.191124246,0.339736271,-1.480492443,0.296420472
-0.939000845,-0.333238453,-0.085026674,-0.084160626,-0.008298516,-0.120510578,-0.138699993,0.235543817,-0.191124246,0.339736271,-1.480492443,0.296420472
-0.939000845,-0.333238453,-0.085026674,-0.084160626,-0.008298516,-0.120510578,-0.138699993,0.235543817,-0.191124246,0.339736271,-1.480492443,0.296420472
-0.939000845,-0.333238453,-0.085026674,-0.084160626,-0.008298516,-0.120510578,-0.138699993,0.235543817,-0.191124246,0.339736271,-1.480492443,0.296420472
-0.939000845,-0.333238453,-0.085026674,-0.084160626,-0.008298516,-0.120510578,-0.138699993,0.235543817,-0.191124246,0.339736271,-1.480492443,0.296420472
-0.939000845,-0.333238453,-0.085026674,-0.084160626,-0.008298516,-0.120510578,-0.138699993,0.235543817,-0.191124246,0.339736271,-1.480492443,0.296420472
-0.935953379,-0.339621007,-0.092998758,-0.102817833,-0.019753486,-0.06662482,0.145179495,0.601215541,-0.425542444,0.346513933,-1.471758807,0.295048514
-0.935953379,-0.339621007,-0.092998758,-0.102817833,-0.019753486,-0.06662482,0.145179495,0.601215541,-0.425542444,0.346513933,-1.471758807,0.295048514
-0.935953379,-0.339621007,-0.092998758,-0.102817833,-0.019753486,-0.06662482,0.145179495,0.601215541,-0.425542444,0.346513933,-1.471758807,0.295048514
-0.935953379,-0.339621007,-0.092998758,-0.102817833,-0.019753486,-0.06662482,0.145179495,0.601215541,-0.425542444,0.346513933,-1.471758807,0.295048514
-0.935953379,-0.339621007,-0.092998758,-0.102817833,-0.019753486,-0.06662482,0.145179495,0.601215541,-0.425542444,0.346513933,-1.471758807,0.295048514
-0.935953379,-0.339621007,-0.092998758,-0.102817833,-0.019753486,-0.06662482,0.145179495,0.601215541,-0.425542444,0.346513933,-1.471758807,0.295048514
-0.935953379,-0.339621007,-0.092998758,-0.102817833,-0.019753486,-0.06662482,0.145179495,0.601215541,-0.425542444,0.346513933,-1.471758807,0.295048514
-0.935953379,-0.339621007,-0.092998758,-0.102817833,-0.019753486,-0.06662482,0.145179495,0.601215541,-0.425542444,0.346513933,-1.471758807,0.295048514
-0.935953379,-0.339621007,-0.092998758,-0.102817833,-0.019753486,-0.06662482,0.145179495,0.601215541,-0.425542444,0.346513933,-1.471758807,0.295048514
-0.935953379,-0.339621007,-0.092998758,-0.102817833,-0.019753486,-0.06662482,0.145179495,0.601215541,-0.425542444,0.346513933,-1.471758807,0.295048514
-0.935953379,-0.339621007,-0.092998758,-0.102817833,-0.019753486,-0.06662482,0.145179495,0.601215541,-0.425542444,0.346513933,-1.471758807,0.295048514
-0.935953379,-0.339621007,-0.092998758,-0.102817833,-0.019753486,-0.06662482,0.145179495,0.601215541,-0.425542444,0.346513933,-1.471758807,0.295048514
-0.930976987,-0.350180715,-0.103224508,-0.142111242,-0.087242484,-0.230593383,0.81826812,0.751668632,-0.65739888,0.357764037,-1.460369757,0.303652929
-0.930976987,-0.350180715,-0.103224508,-0.142111242,-0.087242484,-0.230593383,0.81826812,0.751668632,-0.65739888,0.357764037,-1.460369757,0.303652929
-0.930976987,-0.350180715,-0.103224508,-0.142111242,-0.087242484,-0.230593383,0.81826812,0.751668632,-0.65739888,0.357764037,-1.460369757,0.303652929
-0.930976987,-0.350180715,-0.103224508,-0.142111242,-0.087242484,-0.230593383,0.81826812,0.751668632,-0.65739888,0.357764037,-1.460369757,0.303652929
-0.930976987,-0.350180715,-0.103224508,-0.142111242,-0.087242484,-0.230593383,0.81826812,0.751668632,-0.65739888,0.357764037,-1.460369757,0.303652929
-0.930976987,-0.350180715,-0.103224508,-0.142111242,-0.087242484,-0.230593383,0.81826812,0.751668632,-0.65739888,0.357764037,-1.460369757,0.303652929
-0.930976987,-0.350180715,-0.103224508,-0.142111242,-0.087242484,-0.230593383,0.81826812,0.751668632,-0.65739888,0.357764037,-1.460369757,0.303652929
-0.930976987,-0.350180715,-0.103224508,-0.142111242,-0.087242484,-0.230593383,0.81826812,0.751668632,-0.65739888,0.357764037,-1.460369757,0.303652929
-0.930976987,-0.350180715,-0.103224508,-0.142111242,-0.087242484,-0.230593383,0.81826812,0.751668632,-0.65739888,0.357764037,-1.460369757,0.303652929
-0.930976987,-0.350180715,-0.103224508,-0.142111242,-0.087242484,-0.230593383,0.81826812,0.751668632,-0.65739888,0.357764037,-1.460369757,0.303652929
-0.930976987,-0.350180715,-0.103224508,-0.142111242,-0.087242484,-0.230593383,0.81826812,0.751668632,-0.65739888,0.357764037,-1.460369757,0.303652929
-0.930976987,-0.350180715,-0.103224508,-0.142111242,-0.087242484,-0.230593383,0.81826812,0.751668632,-0.65739888,0.357764037,-1.460369757,0.303652929
-0.92335695,-0.368397743,-0.108145416,-0.234692514,-0.094278842,-0.446466804,1.62251699,0.726595461,-1.083116293,0.377284949,-1.454205506,0.327332585
-0.92335695,-0.368397743,-0.108145416,-0.234692514,-0.094278842,-0.446466804,1.62251699,0.726595461,-1.083116293,0.377284949,-1.454205506,0.327332585
-0.92335695,-0.368397743,-0.108145416,-0.234692514,-0.094278842,-0.446466804,1.62251699,0.726595461,-1.083116293,0.377284949,-1.454205506,0.327332585
-0.92335695,-0.368397743,-0.108145416,-0.234692514,-0.094278842,-0.446466804,1.62251699,0.726595461,-1.083116293,0.377284949,-1.454205506,0.327332585
-0.92335695,-0.368397743,-0.108145416,-0.234692514,-0.094278842,-0.446466804,1.62251699,0.726595461,-1.083116293,0.377284949,-1.454205506,0.327332585
-0.910333574,-0.400408268,-0.104719073,-0.287495553,0.026263207,-0.344195545,3.261651278,0.92286551,-1.911683917,0.411962352,-1.456266006,0.374063889
-0.910333574,-0.400408268,-0.104719073,-0.287495553,0.026263207,-0.344195545,3.261651278,0.92286551,-1.911683917,0.411962352,-1.456266006,0.374063889
-0.910333574,-0.400408268,-0.104719073,-0.287495553,0.026263207,-0.344195545,3.261651278,0.92286551,-1.911683917,0.411962352,-1.456266006,0.374063889
-0.910333574,-0.400408268,-0.104719073,-0.287495553,0.026263207,-0.344195545,3.261651278,0.92286551,-1.911683917,0.411962352,-1.456266006,0.374063889
-0.910333574,-0.400408268,-0.104719073,-0.287495553,0.026263207,-0.344195545,3.261651278,0.92286551,-1.911683917,0.411962352,-1.456266006,0.374063889
-0.910333574,-0.400408268,-0.104719073,-0.287495553,0.026263207,-0.344195545,3.261651278,0.92286551,-1.911683917,0.411962352,-1.456266006,0.374063889
-0.910333574,-0.400408268,-0.104719073,-0.287495553,0.026263207,-0.344195545,3.261651278,0.92286551,-1.911683917,0.411962352,-1.456266006,0.374063889
-0.910333574,-0.400408268,-0.104719073,-0.287495553,0.026263207,-0.344195545,3.261651278,0.92286551,-1.911683917,0.411962352,-1.456266006,0.374063889
-0.910333574,-0.400408268,-0.104719073,-0.287495553,0.026263207,-0.344195545,3.261651278,0.92286551,-1.911683917,0.411962352,-1.456266006,0.374063889
-0.910333574,-0.400408268,-0.104719073,-0.287495553,0.026263207,-0.344195545,3.261651278,0.92286551,-1.911683917,0.411962352,-1.456266006,0.374063889
-0.910333574,-0.400408268,-0.104719073,-0.287495553,0.026263207,-0.344195545,3.261651278,0.92286551,-1.911683917,0.411962352,-1.456266006,0.374063889
-0.910333574,-0.400408268,-0.104719073,-0.287495553,0.026263207,-0.344195545,3.261651278,0.92286551,-1.911683917,0.411962352,-1.456266006,0.374063889
-0.910333574,-0.400408268,-0.104719073,-0.287495553,0.026263207,-0.344195545,3.261651278,0.92286551,-1.911683917,0.411962352,-1.456266006,0.374063889
-0.88770771,-0.4516927,-0.089156494,-0.361162066,0.193239838,-0.188508809,5.427861214,1.497831464,-2.845964432,0.468661697,-1.470697476,0.463944864
-0.88770771,-0.4516927,-0.089156494,-0.361162066,0.193239838,-0.188508809,5.427861214,1.497831464,-2.845964432,0.468661697,-1.470697476,0.463944864
-0.88770771,-0.4516927,-0.089156494,-0.361162066,0.193239838,-0.188508809,5.427861214,1.497831464,-2.845964432,0.468661697,-1.470697476,0.463944864
-0.88770771,-0.4516927,-0.089156494,-0.361162066,0.193239838,-0.188508809,5.427861214,1.497831464,-2.845964432,0.468661697,-1.470697476,0.463944864
-0.88770771,-0.4516927,-0.089156494,-0.361162066,0.193239838,-0.188508809,5.427861214,1.497831464,-2.845964432,0.468661697,-1.470697476,0.463944864
-0.88770771,-0.4516927,-0.089156494,-0.361162066,0.193239838,-0.188508809,5.427861214,1.497831464,-2.845964432,0.468661697,-1.470697476,0.463944864
-0.88770771,-0.4516927,-0.089156494,-0.361162066,0.193239838,-0.188508809,5.427861214,1.497831464,-2.845964432,0.468661697,-1.470697476,0.463944864
-0.88770771,-0.4516927,-0.089156494,-0.361162066,0.193239838,-0.188508809,5.427861214,1.497831464,-2.845964432,0.468661697,-1.470697476,0.463944864
-0.88770771,-0.4516927,-0.089156494,-0.361162066,0.193239838,-0.188508809,5.427861214,1.497831464,-2.845964432,0.468661697,-1.470697476,0.463944864
-0.88770771,-0.4516927,-0.089156494,-0.361162066,0.193239838,-0.188508809,5.427861214,1.497831464,-2.845964432,0.468661697,-1.470697476,0.463944864
-0.853806913,-0.516985118,-0.061157264,-0.40253973,-0.052487493,-0.097962618,6.382408142,2.011068583,-3.498987198,0.543325112,-1.49928954,0.596895168
-0.853806913,-0.516985118,-0.061157264,-0.40253973,-0.052487493,-0.097962618,6.382408142,2.011068583,-3.498987198,0.543325112,-1.49928954,0.596895168
-0.853806913,-0.516985118,-0.061157264,-0.40253973,-0.052487493,-0.097962618,6.382408142,2.011068583,-3.498987198,0.543325112,-1.49928954,0.596895168
-0.853806913,-0.516985118,-0.061157264,-0.40253973,-0.052487493,-0.097962618,6.382408142,2.011068583,-3.498987198,0.543325112,-1.49928954,0.596895168
-0.853806913,-0.516985118,-0.061157264,-0.40253973,-0.052487493,-0.097962618,6.382408142,2.011068583,-3.498987198,0.543325112,-1.49928954,0.596895168
-0.853806913,-0.516985118,-0.061157264,-0.40253973,-0.052487493,-0.097962618,6.382408142,2.011068583,-3.498987198,0.543325112,-1.49928954,0.596895168
-0.853806913,-0.516985118,-0.061157264,-0.40253973,-0.052487493,-0.097962618,6.382408142,2.011068583,-3.498987198,0.543325112,-1.49928954,0.596895168
-0.853806913,-0.516985118,-0.061157264,-0.40253973,-0.052487493,-0.097962618,6.382408142,2.011068583,-3.498987198,0.543325112,-1.49928954,0.596895168
-0.853806913,-0.516985118,-0.061157264,-0.40253973,-0.052487493,-0.097962618,6.382408142,2.011068583,-3.498987198,0.543325112,-1.49928954,0.596895168
-0.853806913,-0.516985118,-0.061157264,-0.40253973,-0.052487493,-0.097962618,6.382408142,2.011068583,-3.498987198,0.543325112,-1.49928954,0.596895168
-0.811891735,-0.582973003,-0.031210242,-0.35296309,-0.592441142,-0.081019521,4.952082157,1.971699238,-3.775849104,0.622383048,-1.532373862,0.731153285
-0.811891735,-0.582973003,-0.031210242,-0.35296309,-0.592441142,-0.081019521,4.952082157,1.971699238,-3.775849104,0.622383048,-1.532373862,0.731153285
-0.811891735,-0.582973003,-0.031210242,-0.35296309,-0.592441142,-0.081019521,4.952082157,1.971699238,-3.775849104,0.622383048,-1.532373862,0.731153285
-0.811891735,-0.582973003,-0.031210242,-0.35296309,-0.592441142,-0.081019521,4.952082157,1.971699238,-3.775849104,0.622383048,-1.532373862,0.731153285
-0.811891735,-0.582973003,-0.031210242,-0.35296309,-0.592441142,-0.081019521,4.952082157,1.971699238,-3.775849104,0.622383048,-1.532373862,0.731153285
-0.811891735,-0.582973003,-0.031210242,-0.35296309,-0.592441142,-0.081019521,4.952082157,1.971699238,-3.775849104,0.622383048,-1.532373862,0.731153285
-0.811891735,-0.582973003,-0.031210242,-0.35296309,-0.592441142,-0.081019521,4.952082157,1.971699238,-3.775849104,0.622383048,-1.532373862,0.731153285
-0.811891735,-0.582973003,-0.031210242,-0.35296309,-0.592441142,-0.081019521,4.952082157,1.971699238,-3.775849104,0.622383048,-1.532373862,0.731153285
-0.811891735,-0.582973003,-0.031210242,-0.35296309,-0.592441142,-0.081019521,4.952082157,1.971699238,-3.775849104,0.622383048,-1.532373862,0.731153285
-0.811891735,-0.582973003,-0.031210242,-0.35296309,-0.592441142,-0.081019521,4.952082157,1.971699238,-3.775849104,0.622383048,-1.532373862,0.731153285
-0.811891735,-0.582973003,-0.031210242,-0.35296309,-0.592441142,-0.081019521,4.952082157,1.971699238,-3.775849104,0.622383048,-1.532373862,0.731153285
-0.811891735,-0.582973003,-0.031210242,-0.35296309,-0.592441142,-0.081019521,4.952082157,1.971699238,-3.775849104,0.622383048,-1.532373862,0.731153285
-0.811891735,-0.582973003,-0.031210242,-0.35296309,-0.592441142,-0.081019521,4.952082157,1.971699238,-3.775849104,0.622383048,-1.532373862,0.731153285
-0.762605548,-0.646775842,-0.010660161,-0.373501718,-0.760739625,-0.334891796,2.439186573,1.013434887,-4.051921844,0.703349444,-1.556818633,0.822923065
-0.762605548,-0.646775842,-0.010660161,-0.373501718,-0.760739625,-0.334891796,2.439186573,1.013434887,-4.051921844,0.703349444,-1.556818633,0.822923065
-0.762605548,-0.646775842,-0.010660161,-0.373501718,-0.760739625,-0.334891796,2.439186573,1.013434887,-4.051921844,0.703349444,-1.556818633,0.822923065
-0.762605548,-0.646775842,-0.010660161,-0.373501718,-0.760739625,-0.334891796,2.439186573,1.013434887,-4.051921844,0.703349444,-1.556818633,0.822923065
-0.762605548,-0.646775842,-0.010660161,-0.373501718,-0.760739625,-0.334891796,2.439186573,1.013434887,-4.051921844,0.703349444,-1.556818633,0.822923065
-0.762605548,-0.646775842,-0.010660161,-0.373501718,-0.760739625,-0.334891796,2.439186573,1.013434887,-4.051921844,0.703349444,-1.556818633,0.822923065
-0.762605548,-0.646775842,-0.010660161,-0.373501718,-0.760739625,-0.334891796,2.439186573,1.013434887,-4.051921844,0.703349444,-1.556818633,0.822923065
-0.762605548,-0.646775842,-0.010660161,-0.373501718,-0.760739625,-0.334891796,2.439186573,1.013434887,-4.051921844,0.703349444,-1.556818633,0.822923065
-0.762605548,-0.646775842,-0.010660161,-0.373501718,-0.760739625,-0.334891796,2.439186573,1.013434887,-4.051921844,0.703349444,-1.556818633,0.822923065
-0.762605548,-0.646775842,-0.010660161,-0.373501718,-0.760739625,-0.334891796,2.439186573,1.013434887,-4.051921844,0.703349444,-1.556818633,0.822923065
-0.762605548,-0.646775842,-0.010660161,-0.373501718,-0.760739625,-0.334891796,2.439186573,1.013434887,-4.051921844,0.703349444,-1.556818633,0.822923065
-0.762605548,-0.646775842,-0.010660161,-0.373501718,-0.760739625,-0.334891796,2.439186573,1.013434887,-4.051921844,0.703349444,-1.556818633,0.822923065
-0.762605548,-0.646775842,-0.010660161,-0.373501718,-0.760739625,-0.334891796,2.439186573,1.013434887,-4.051921844,0.703349444,-1.556818633,0.822923065
-0.707591414,-0.706614196,0.003330921,-0.251544535,-0.512378991,-0.251928568,0.832388222,-0.110565856,-4.131704807,0.784701804,-1.575503699,0.86190519
-0.707591414,-0.706614196,0.003330921,-0.251544535,-0.512378991,-0.251928568,0.832388222,-0.110565856,-4.131704807,0.784701804,-1.575503699,0.86190519
-0.707591414,-0.706614196,0.003330921,-0.251544535,-0.512378991,-0.251928568,0.832388222,-0.110565856,-4.131704807,0.784701804,-1.575503699,0.86190519
-0.707591414,-0.706614196,0.003330921,-0.251544535,-0.512378991,-0.251928568,0.832388222,-0.110565856,-4.131704807,0.784701804,-1.575503699,0.86190519
-0.707591414,-0.706614196,0.003330921,-0.251544535,-0.512378991,-0.251928568,0.832388222,-0.110565856,-4.131704807,0.784701804,-1.575503699,0.86190519
-0.707591414,-0.706614196,0.003330921,-0.251544535,-0.512378991,-0.251928568,0.832388222,-0.110565856,-4.131704807,0.784701804,-1.575503699,0.86190519
-0.707591414,-0.706614196,0.003330921,-0.251544535,-0.512378991,-0.251928568,0.832388222,-0.110565856,-4.131704807,0.784701804,-1.575503699,0.86190519
-0.707591414,-0.706614196,0.003330921,-0.251544535,-0.512378991,-0.251928568,0.832388222,-0.110565856,-4.131704807,0.784701804,-1.575503699,0.86190519
-0.707591414,-0.706614196,0.003330921,-0.251544535,-0.512378991,-0.251928568,0.832388222,-0.110565856,-4.131704807,0.784701804,-1.575503699,0.86190519
-0.505135417,-0.861755133,0.047078941,-0.167288184,-0.108412683,0.19438982,0.750852346,-0.190635175,-4.306412697,1.038719141,-1.663728504,0.950802434
-0.505135417,-0.861755133,0.047078941,-0.167288184,-0.108412683,0.19438982,0.750852346,-0.190635175,-4.306412697,1.038719141,-1.663728504,0.950802434
-0.429068685,-0.901235223,0.060620826,-0.017097592,-0.081246078,0.175262928,0.588831902,-0.304958165,-4.299580574,1.122611599,-1.711152011,0.999209206
-0.270897478,-0.959296048,0.079786621,0.061501741,-0.061331749,0.241683125,0.231938004,-0.651176393,-4.155265808,1.284498743,-1.857224478,1.135553585
-0.270897478,-0.959296048,0.079786621,0.061501741,-0.061331749,0.241683125,0.231938004,-0.651176393,-4.155265808,1.284498743,-1.857224478,1.135553585
-0.270897478,-0.959296048,0.079786621,0.061501741,-0.061331749,0.241683125,0.231938004,-0.651176393,-4.155265808,1.284498743,-1.857224478,1.135553585
0.762399316,-0.635767341,-0.120611601,-0.434123755,0.177105069,0.045826018,0.584282041,-3.318171024,-2.363336086,0.689002248,1.41389659,-2.800693551
0.762399316,-0.635767341,-0.120611601,-0.434123755,0.177105069,0.045826018,0.584282041,-3.318171024,-2.363336086,0.689002248,1.41389659,-2.800693551
0.762399316,-0.635767341,-0.120611601,-0.434123755,0.177105069,0.045826018,0.584282041,-3.318171024,-2.363336086,0.689002248,1.41389659,-2.800693551
0.786859393,-0.580476165,-0.209522605,-0.395809412,0.156283498,-0.009382308,0.16807352,-3.036419153,-1.335383177,0.619313327,1.310557708,-2.839621818
0.786859393,-0.580476165,-0.209522605,-0.395809412,0.156283498,-0.009382308,0.16807352,-3.036419153,-1.335383177,0.619313327,1.310557708,-2.839621818
0.786859393,-0.580476165,-0.209522605,-0.395809412,0.156283498,-0.009382308,0.16807352,-3.036419153,-1.335383177,0.619313327,1.310557708,-2.839621818
0.787422478,-0.563378215,-0.250141799,-0.428568363,0.329431951,-0.070798278,0.630502284,-2.673863411,-1.049829602,0.598469005,1.263206875,-2.856958439
0.787422478,-0.563378215,-0.250141799,-0.428568363,0.329431951,-0.070798278,0.630502284,-2.673863411,-1.049829602,0.598469005,1.263206875,-2.856958439
0.787422478,-0.563378215,-0.250141799,-0.428568363,0.329431951,-0.070798278,0.630502284,-2.673863411,-1.049829602,0.598469005,1.263206875,-2.856958439
0.785576046,-0.552829623,-0.277938634,-0.425531566,0.312901735,0.016706347,1.229738712,-2.149614573,-0.939102232,0.585756123,1.230738168,-2.885733345
0.785576046,-0.552829623,-0.277938634,-0.425531566,0.312901735,0.016706347,1.229738712,-2.149614573,-0.939102232,0.585756123,1.230738168,-2.885733345
0.785576046,-0.552829623,-0.277938634,-0.425531566,0.312901735,0.016706347,1.229738712,-2.149614573,-0.939102232,0.585756123,1.230738168,-2.885733345
0.783936799,-0.546609282,-0.2943829,-0.374545753,0.007792532,0.106529891,1.026157498,-1.692932129,-0.710970998,0.578309728,1.211571014,-2.919446391
0.783936799,-0.546609282,-0.2943829,-0.374545753,0.007792532,0.106529891,1.026157498,-1.692932129,-0.710970998,0.578309728,1.211571014,-2.919446391
0.783936799,-0.546609282,-0.2943829,-0.374545753,0.007792532,0.106529891,1.026157498,-1.692932129,-0.710970998,0.578309728,1.211571014,-2.919446391
0.783936799,-0.546609282,-0.2943829,-0.374545753,0.007792532,0.106529891,1.026157498,-1.692932129,-0.710970998,0.578309728,1.211571014,-2.919446391
0.780997872,-0.541343629,-0.311431378,-0.332620621,-0.032980382,-0.186068118,0.292652041,-1.28183043,-0.465670645,0.572034334,1.191358639,-2.937164958
0.780997872,-0.541343629,-0.311431378,-0.332620621,-0.032980382,-0.186068118,0.292652041,-1.28183043,-0.465670645,0.572034334,1.191358639,-2.937164958
0.778754175,-0.537555635,-0.323382258,-0.31630832,0.334218502,-0.188277364,0.922049344,-0.936714411,-0.481706142,0.567535581,1.177207911,-2.952478767
0.778754175,-0.537555635,-0.323382258,-0.31630832,0.334218502,-0.188277364,0.922049344,-0.936714411,-0.481706142,0.567535581,1.177207911,-2.952478767
0.778754175,-0.537555635,-0.323382258,-0.31630832,0.334218502,-0.188277364,0.922049344,-0.936714411,-0.481706142,0.567535581,1.177207911,-2.952478767
0.780039728,-0.538454711,-0.318754673,-0.232083559,-0.094447851,-0.031619549,0.677110851,-0.568172514,-0.360605597,0.568602177,1.182864767,-3.011786104
0.780039728,-0.538454711,-0.318754673,-0.232083559,-0.094447851,-0.031619549,0.677110851,-0.568172514,-0.360605597,0.568602177,1.182864767,-3.011786104
0.780039728,-0.538454711,-0.318754673,-0.232083559,-0.094447851,-0.031619549,0.677110851,-0.568172514,-0.360605597,0.568602177,1.182864767,-3.011786104
0.780479252,-0.535602391,-0.322462738,-0.092004716,-0.038492858,0.063656628,0.571859479,-0.671218276,-0.491330534,0.565220931,1.178996924,-3.028492784
0.780479252,-0.535602391,-0.322462738,-0.092004716,-0.038492858,0.063656628,0.571859479,-0.671218276,-0.491330534,0.565220931,1.178996924,-3.028492784
0.780479252,-0.535602391,-0.322462738,-0.092004716,-0.038492858,0.063656628,0.571859479,-0.671218276,-0.491330534,0.565220931,1.178996924,-3.028492784
0.782517493,-0.532250881,-0.323072195,-0.036364794,0.031657159,-0.011280179,0.931201875,-0.425051063,-0.581325054,0.561257101,1.179250927,-3.050352783
0.782517493,-0.532250881,-0.323072195,-0.036364794,0.031657159,-0.011280179,0.931201875,-0.425051063,-0.581325054,0.561257101,1.179250927,-3.050352783
0.782517493,-0.532250881,-0.323072195,-0.036364794,0.031657159,-0.011280179,0.931201875,-0.425051063,-0.581325054,0.561257101,1.179250927,-3.050352783
0.786321938,-0.529628992,-0.318105578,-0.053581715,0.071012199,-0.213039398,1.000026464,-0.324325323,-0.536369085,0.558163102,1.186374759,-3.076424226
0.786321938,-0.529628992,-0.318105578,-0.053581715,0.071012199,-0.213039398,1.000026464,-0.324325323,-0.536369085,0.558163102,1.186374759,-3.076424226
0.786321938,-0.529628992,-0.318105578,-0.053581715,0.071012199,-0.213039398,1.000026464,-0.324325323,-0.536369085,0.558163102,1.186374759,-3.076424226
0.790044308,-0.527527392,-0.312321693,-0.115379035,0.092897415,-0.141552806,0.953427553,-0.256695241,-0.538414001,0.555687399,1.19432943,-3.103215407
0.790044308,-0.527527392,-0.312321693,-0.115379035,0.092897415,-0.141552806,0.953427553,-0.256695241,-0.538414001,0.555687399,1.19432943,-3.103215407
0.790044308,-0.527527392,-0.312321693,-0.115379035,0.092897415,-0.141552806,0.953427553,-0.256695241,-0.538414001,0.555687399,1.19432943,-3.103215407
0.793904185,-0.524506688,-0.307585508,-0.119177818,-0.042172849,-0.046740651,0.525519669,-0.170231625,-0.414346814,0.552135625,1.201169365,-3.123739442
0.793904185,-0.524506688,-0.307585508,-0.119177818,-0.042172849,-0.046740651,0.525519669,-0.170231625,-0.414346814,0.552135625,1.201169365,-3.123739442
0.793904185,-0.524506688,-0.307585508,-0.119177818,-0.042172849,-0.046740651,0.525519669,-0.170231625,-0.414346814,0.552135625,1.201169365,-3.123739442
0.793904185,-0.524506688,-0.307585508,-0.119177818,-0.042172849,-0.046740651,0.525519669,-0.170231625,-0.414346814,0.552135625,1.201169365,-3.123739442
0.793904185,-0.524506688,-0.307585508,-0.119177818,-0.042172849,-0.046740651,0.525519669,-0.170231625,-0.414346814,0.552135625,1.201169365,-3.123739442
0.793904185,-0.524506688,-0.307585508,-0.119177818,-0.042172849,-0.046740651,0.525519669,-0.170231625,-0.414346814,0.552135625,1.201169365,-3.123739442
0.796584189,-0.520851851,-0.306866467,-0.027482271,-0.078923941,0.05797857,0.386387676,-0.294764549,-0.391316533,0.547848568,1.203088985,-3.135967814
0.796584189,-0.520851851,-0.306866467,-0.027482271,-0.078923941,0.05797857,0.386387676,-0.294764549,-0.391316533,0.547848568,1.203088985,-3.135967814
0.796584189,-0.520851851,-0.306866467,-0.027482271,-0.078923941,0.05797857,0.386387676,-0.294764549,-0.391316533,0.547848568,1.203088985,-3.135967814
0.797207773,-0.516468704,-0.312601715,0.020584881,0.002401471,-0.013816178,0.464095891,-0.410484165,-0.36561203,0.542721927,1.197100822,3.136973317
0.797207773,-0.516468704,-0.312601715,0.020584881,0.002401471,-0.013816178,0.464095891,-0.410484165,-0.36561203,0.542721927,1.197100822,3.136973317
0.797207773,-0.516468704,-0.312601715,0.020584881,0.002401471,-0.013816178,0.464095891,-0.410484165,-0.36561203,0.542721927,1.197100822,3.136973317
0.797207773,-0.516468704,-0.312601715,0.020584881,0.002401471,-0.013816178,0.464095891,-0.410484165,-0.36561203,0.542721927,1.197100822,3.136973317
0.797207773,-0.516468704,-0.312601715,0.020584881,0.002401471,-0.013816178,0.464095891,-0.410484165,-0.36561203,0.542721927,1.197100822,3.136973317
0.797207773,-0.516468704,-0.312601715,0.020584881,0.002401471,-0.013816178,0.464095891,-0.410484165,-0.36561203,0.542721927,1.197100822,3.136973317
0.795604467,-0.511646628,-0.324393779,-0.025373459,-0.075754344,-0.093119025,0.380604625,-0.435459286,-0.386521548,0.537100187,1.183641843,3.130511674
0.795604467,-0.511646628,-0.324393779,-0.025373459,-0.075754344,-0.093119025,0.380604625,-0.435459286,-0.386521548,0.537100187,1.183641843,3.130511674
0.795604467,-0.511646628,-0.324393779,-0.025373459,-0.075754344,-0.093119025,0.380604625,-0.435459286,-0.386521548,0.537100187,1.183641843,3.130511674
0.794133484,-0.510208488,-0.330211073,-0.113319159,-0.20214659,0.053780913,0.35033074,-0.306730568,-0.485231757,0.535427195,1.176732772,3.121068219
0.794133484,-0.510208488,-0.330211073,-0.113319159,-0.20214659,0.053780913,0.35033074,-0.306730568,-0.485231757,0.535427195,1.176732772,3.121068219
0.794133484,-0.510208488,-0.330211073,-0.113319159,-0.20214659,0.053780913,0.35033074,-0.306730568,-0.485231757,0.535427195,1.176732772,3.121068219
0.794133484,-0.510208488,-0.330211073,-0.113319159,-0.20214659,0.053780913,0.35033074,-0.306730568,-0.485231757,0.535427195,1.176732772,3.121068219
0.794133484,-0.510208488,-0.330211073,-0.113319159,-0.20214659,0.053780913,0.35033074,-0.306730568,-0.485231757,0.535427195,1.176732772,3.121068219
0.794133484,-0.510208488,-0.330211073,-0.113319159,-0.20214659,0.053780913,0.35033074,-0.306730568,-0.485231757,0.535427195,1.176732772,3.121068219
0.795053661,-0.507662117,-0.331917107,-0.137173295,-0.274273098,0.082906961,-0.063537955,-0.195965499,-0.382875681,0.532469023,1.175314413,3.114116017
0.795053661,-0.507662117,-0.331917107,-0.137173295,-0.274273098,0.082906961,-0.063537955,-0.195965499,-0.382875681,0.532469023,1.175314413,3.114116017
0.795053661,-0.507662117,-0.331917107,-0.137173295,-0.274273098,0.082906961,-0.063537955,-0.195965499,-0.382875681,0.532469023,1.175314413,3.114116017
0.795053661,-0.507662117,-0.331917107,-0.137173295,-0.274273098,0.082906961,-0.063537955,-0.195965499,-0.382875681,0.532469023,1.175314413,3.114116017
0.795053661,-0.507662117,-0.331917107,-0.137173295,-0.274273098,0.082906961,-0.063537955,-0.195965499,-0.382875681,0.532469023,1.175314413,3.114116017
0.795053661,-0.507662117,-0.331917107,-0.137173295,-0.274273098,0.082906961,-0.063537955,-0.195965499,-0.382875681,0.532469023,1.175314413,3.114116017
0.797291994,-0.499833196,-0.338367015,-0.151374459,-0.185223967,0.080506802,-0.659316897,-0.172059819,-0.258538574,0.523406164,1.16943795,3.118433286
0.797291994,-0.499833196,-0.338367015,-0.151374459,-0.185223967,0.080506802,-0.659316897,-0.172059819,-0.258538574,0.523406164,1.16943795,3.118433286
0.797291994,-0.499833196,-0.338367015,-0.151374459,-0.185223967,0.080506802,-0.659316897,-0.172059819,-0.258538574,0.523406164,1.16943795,3.118433286
0.795846581,-0.492438406,-0.352324843,-0.223461211,-0.284980267,0.169476867,-1.566252708,0.047267683,0.043203983,0.514889178,1.154025897,-3.141497026
0.795846581,-0.492438406,-0.352324843,-0.223461211,-0.284980267,0.169476867,-1.566252708,0.047267683,0.043203983,0.514889178,1.154025897,-3.141497026
0.795846581,-0.492438406,-0.352324843,-0.223461211,-0.284980267,0.169476867,-1.566252708,0.047267683,0.043203983,0.514889178,1.154025897,-3.141497026
0.795846581,-0.492438406,-0.352324843,-0.223461211,-0.284980267,0.169476867,-1.566252708,0.047267683,0.043203983,0.514889178,1.154025897,-3.141497026
0.793956459,-0.480941325,-0.371925503,-0.210005105,-0.404784113,0.139913619,-2.782958508,0.142390922,0.482753724,0.501728038,1.132709242,-3.093990383
0.787756205,-0.450366288,-0.420250416,-0.163338602,0.10912022,0.072851658,-3.075574398,0.65547514,0.711641192,0.467175535,1.080726569,-2.947791081
0.787756205,-0.450366288,-0.420250416,-0.163338602,0.10912022,0.072851658,-3.075574398,0.65547514,0.711641192,0.467175535,1.080726569,-2.947791081
0.787756205,-0.450366288,-0.420250416,-0.163338602,0.10912022,0.072851658,-3.075574398,0.65547514,0.711641192,0.467175535,1.080726569,-2.947791081
0.787756205,-0.450366288,-0.420250416,-0.163338602,0.10912022,0.072851658,-3.075574398,0.65547514,0.711641192,0.467175535,1.080726569,-2.947791081
0.787756205,-0.450366288,-0.420250416,-0.163338602,0.10912022,0.072851658,-3.075574398,0.65547514,0.711641192,0.467175535,1.080726569,-2.947791081
0.787756205,-0.450366288,-0.420250416,-0.163338602,0.10912022,0.072851658,-3.075574398,0.65547514,0.711641192,0.467175535,1.080726569,-2.947791081
0.787756205,-0.450366288,-0.420250416,-0.163338602,0.10912022,0.072851658,-3.075574398,0.65547514,0.711641192,0.467175535,1.080726569,-2.947791081
0.787924826,-0.436095953,-0.434735358,-0.011193991,0.229096681,0.165995717,-2.934720039,0.780661941,0.692693889,0.45125578,1.066612636,-2.88258536
0.787924826,-0.436095953,-0.434735358,-0.011193991,0.229096681,0.165995717,-2.934720039,0.780661941,0.692693889,0.45125578,1.066612636,-2.88258536
0.787924826,-0.436095953,-0.434735358,-0.011193991,0.229096681,0.165995717,-2.934720039,0.780661941,0.692693889,0.45125578,1.066612636,-2.88258536
0.787924826,-0.436095953,-0.434735358,-0.011193991,0.229096681,0.165995717,-2.934720039,0.780661941,0.692693889,0.45125578,1.066612636,-2.88258536
0.787924826,-0.436095953,-0.434735358,-0.011193991,0.229096681,0.165995717,-2.934720039,0.780661941,0.692693889,0.45125578,1.066612636,-2.88258536
0.787924826,-0.436095953,-0.434735358,-0.011193991,0.229096681,0.165995717,-2.934720039,0.780661941,0.692693889,0.45125578,1.066612636,-2.88258536
0.78720808,-0.418449581,-0.452994019,0.135778189,-0.110784888,0.041157544,-3.458930969,0.295701444,0.588938296,0.431737587,1.048628595,-2.813838744
0.78720808,-0.418449581,-0.452994019,0.135778189,-0.110784888,0.041157544,-3.458930969,0.295701444,0.588938296,0.431737587,1.048628595,-2.813838744
0.78720808,-0.418449581,-0.452994019,0.135778189,-0.110784888,0.041157544,-3.458930969,0.295701444,0.588938296,0.431737587,1.048628595,-2.813838744
0.781636775,-0.37055403,-0.501730859,-0.024910092,0.115718156,0.060262084,-2.3107481,0.012689211,0.707748592,0.379605431,1.000137997,-2.684254074
0.781636775,-0.37055403,-0.501730859,-0.024910092,0.115718156,0.060262084,-2.3107481,0.012689211,0.707748592,0.379605431,1.000137997,-2.684254074
0.781636775,-0.37055403,-0.501730859,-0.024910092,0.115718156,0.060262084,-2.3107481,0.012689211,0.707748592,0.379605431,1.000137997,-2.684254074
0.778861642,-0.358823299,-0.514412642,-0.018244207,0.107466489,-0.021630287,-1.872123718,0.310610354,0.43461585,0.367006925,0.987097907,-2.639700667
0.778861642,-0.358823299,-0.514412642,-0.018244207,0.107466489,-0.021630287,-1.872123718,0.310610354,0.43461585,0.367006925,0.987097907,-2.639700667
0.778861642,-0.358823299,-0.514412642,-0.018244207,0.107466489,-0.021630287,-1.872123718,0.310610354,0.43461585,0.367006925,0.987097907,-2.639700667
0.77547884,-0.317748278,-0.545590043,-0.025267839,-0.040496498,-0.010457039,-2.504078627,0.278583527,0.680324852,0.323353733,0.957690112,-2.515584286
0.77547884,-0.317748278,-0.545590043,-0.025267839,-0.040496498,-0.010457039,-2.504078627,0.278583527,0.680324852,0.323353733,0.957690112,-2.515584286
0.77547884,-0.317748278,-0.545590043,-0.025267839,-0.040496498,-0.010457039,-2.504078627,0.278583527,0.680324852,0.323353733,0.957690112,-2.515584286
0.757149994,-0.241790235,-0.606845498,-0.119166791,-0.182266146,0.079042912,0.585903108,-0.096766442,-0.048492756,0.2442104,0.895149669,-2.372014004
0.757149994,-0.241790235,-0.606845498,-0.119166791,-0.182266146,0.079042912,0.585903108,-0.096766442,-0.048492756,0.2442104,0.895149669,-2.372014004
0.757149994,-0.241790235,-0.606845498,-0.119166791,-0.182266146,0.079042912,0.585903108,-0.096766442,-0.048492756,0.2442104,0.895149669,-2.372014004
0.754964828,-0.249211133,-0.606565714,-0.059349298,-0.112558782,0.077694952,1.114451885,-0.234367535,0.076216474,0.251865609,0.893963962,-2.384932455
0.754964828,-0.249211133,-0.606565714,-0.059349298,-0.112558782,0.077694952,1.114451885,-0.234367535,0.076216474,0.251865609,0.893963962,-2.384932455
0.754964828,-0.249211133,-0.606565714,-0.059349298,-0.112558782,0.077694952,1.114451885,-0.234367535,0.076216474,0.251865609,0.893963962,-2.384932455
0.754964828,-0.249211133,-0.606565714,-0.059349298,-0.112558782,0.077694952,1.114451885,-0.234367535,0.076216474,0.251865609,0.893963962,-2.384932455
0.754964828,-0.249211133,-0.606565714,-0.059349298,-0.112558782,0.077694952,1.114451885,-0.234367535,0.076216474,0.251865609,0.893963962,-2.384932455
0.754964828,-0.249211133,-0.606565714,-0.059349298,-0.112558782,0.077694952,1.114451885,-0.234367535,0.076216474,0.251865609,0.893963962,-2.384932455
0.75031209,-0.26235193,-0.606797516,-0.075555205,0.080895096,0.144348383,0.900734961,-0.124372877,0.036615163,0.265458715,0.890756777,-2.402004104
0.75031209,-0.26235193,-0.606797516,-0.075555205,0.080895096,0.144348383,0.900734961,-0.124372877,0.036615163,0.265458715,0.890756777,-2.402004104
0.75031209,-0.26235193,-0.606797516,-0.075555205,0.080895096,0.144348383,0.900734961,-0.124372877,0.036615163,0.265458715,0.890756777,-2.402004104
0.751099765,-0.267355472,-0.6036309,-0.115359604,-0.088082045,0.096641302,-0.440607935,0.386034846,0.386559278,0.27064754,0.893825959,-2.403021492
0.751099765,-0.267355472,-0.6036309,-0.115359604,-0.088082045,0.096641302,-0.440607935,0.386034846,0.386559278,0.27064754,0.893825959,-2.403021492
0.751099765,-0.267355472,-0.6036309,-0.115359604,-0.088082045,0.096641302,-0.440607935,0.386034846,0.386559278,0.27064754,0.893825959,-2.403021492
0.751099765,-0.267355472,-0.6036309,-0.115359604,-0.088082045,0.096641302,-0.440607935,0.386034846,0.386559278,0.27064754,0.893825959,-2.403021492
0.751099765,-0.267355472,-0.6036309,-0.115359604,-0.088082045,0.096641302,-0.440607935,0.386034846,0.386559278,0.27064754,0.893825959,-2.403021492
0.751099765,-0.267355472,-0.6036309,-0.115359604,-0.088082045,0.096641302,-0.440607935,0.386034846,0.386559278,0.27064754,0.893825959,-2.403021492
0.7546435,-0.26615724,-0.599727929,-0.102790117,-0.275788426,-0.152378917,-1.098850608,0.677973628,0.674260318,0.269404266,0.899285111,-2.382414713
0.759133399,-0.258410007,-0.59744525,-0.220027268,0.046649277,-0.039289832,-1.927090287,0.647574902,0.593226254,0.261375946,0.904026707,-2.350180776
0.759133399,-0.258410007,-0.59744525,-0.220027268,0.046649277,-0.039289832,-1.927090287,0.647574902,0.593226254,0.261375946,0.904026707,-2.350180776
0.759133399,-0.258410007,-0.59744525,-0.220027268,0.046649277,-0.039289832,-1.927090287,0.647574902,0.593226254,0.261375946,0.904026707,-2.350180776
0.759133399,-0.258410007,-0.59744525,-0.220027268,0.046649277,-0.039289832,-1.927090287,0.647574902,0.593226254,0.261375946,0.904026707,-2.350180776
0.759133399,-0.258410007,-0.59744525,-0.220027268,0.046649277,-0.039289832,-1.927090287,0.647574902,0.593226254,0.261375946,0.904026707,-2.350180776
0.748275459,-0.285522908,-0.598799288,-0.412599504,0.190903962,0.067960143,1.167838454,0.019020904,2.024118662,0.289552003,0.895909597,-2.15912607
0.748275459,-0.285522908,-0.598799288,-0.412599504,0.190903962,0.067960143,1.167838454,0.019020904,2.024118662,0.289552003,0.895909597,-2.15912607
0.748275459,-0.285522908,-0.598799288,-0.412599504,0.190903962,0.067960143,1.167838454,0.019020904,2.024118662,0.289552003,0.895909597,-2.15912607
0.735053897,-0.334234685,-0.589900792,-0.409067214,0.212195814,0.144053102,0.984285414,0.181726933,2.741418123,0.340793093,0.894516268,-2.146943623
0.735053897,-0.334234685,-0.589900792,-0.409067214,0.212195814,0.144053102,0.984285414,0.181726933,2.741418123,0.340793093,0.894516268,-2.146943623
0.735053897,-0.334234685,-0.589900792,-0.409067214,0.212195814,0.144053102,0.984285414,0.181726933,2.741418123,0.340793093,0.894516268,-2.146943623
0.714387834,-0.391505659,-0.579976976,-0.361591637,0.087322921,0.21171999,1.481718183,0.059821874,3.325407505,0.402267287,0.888870421,-2.124091934
0.714387834,-0.391505659,-0.579976976,-0.361591637,0.087322921,0.21171999,1.481718183,0.059821874,3.325407505,0.402267287,0.888870421,-2.124091934
0.714387834,-0.391505659,-0.579976976,-0.361591637,0.087322921,0.21171999,1.481718183,0.059821874,3.325407505,0.402267287,0.888870421,-2.124091934
0.685567677,-0.461291045,-0.563211858,-0.324638188,0.251590848,0.235009313,1.864229202,0.179180503,3.721016407,0.479449746,0.883066759,-2.105739103
0.685567677,-0.461291045,-0.563211858,-0.324638188,0.251590848,0.235009313,1.864229202,0.179180503,3.721016407,0.479449746,0.883066759,-2.105739103
0.648863673,-0.532393277,-0.543629885,-0.303925395,0.473022819,0.250308871,1.608858109,0.197311923,4.127730846,0.561425297,0.873416997,-2.077971745
0.288594663,-0.74041003,-0.607047081,-0.161444128,0.186655819,0.182744622,-2.443983793,-1.67305851,5.601707458,0.833680155,0.443780658,-1.522281417
0.288594663,-0.74041003,-0.607047081,-0.161444128,0.186655819,0.182744622,-2.443983793,-1.67305851,5.601707458,0.833680155,0.443780658,-1.522281417
0.288594663,-0.74041003,-0.607047081,-0.161444128,0.186655819,0.182744622,-2.443983793,-1.67305851,5.601707458,0.833680155,0.443780658,-1.522281417
0.17784676,-0.744542718,-0.643449008,-0.104025364,0.144676447,0.179260135,-1.028223395,-2.602289915,5.66250515,0.839849557,0.269663649,-1.346261413
0.17784676,-0.744542718,-0.643449008,-0.104025364,0.144676447,0.179260135,-1.028223395,-2.602289915,5.66250515,0.839849557,0.269663649,-1.346261413
0.17784676,-0.744542718,-0.643449008,-0.104025364,0.144676447,0.179260135,-1.028223395,-2.602289915,5.66250515,0.839849557,0.269663649,-1.346261413
0.056789182,-0.749764919,-0.659262836,-0.195934236,0.060253263,0.068273544,-0.384119689,-2.821101427,5.739239693,0.84770673,0.085928313,-1.174316413
0.056789182,-0.749764919,-0.659262836,-0.195934236,0.060253263,0.068273544,-0.384119689,-2.821101427,5.739239693,0.84770673,0.085928313,-1.174316413
0.056789182,-0.749764919,-0.659262836,-0.195934236,0.060253263,0.068273544,-0.384119689,-2.821101427,5.739239693,0.84770673,0.085928313,-1.174316413
-0.065755047,-0.74429059,-0.664610982,-0.228403658,0.029876411,0.084211469,-0.467288584,-2.640084982,5.88526392,0.839471998,-0.098616707,-1.000380358
-0.065755047,-0.74429059,-0.664610982,-0.228403658,0.029876411,0.084211469,-0.467288584,-2.640084982,5.88526392,0.839471998,-0.098616707,-1.000380358
-0.065755047,-0.74429059,-0.664610982,-0.228403658,0.029876411,0.084211469,-0.467288584,-2.640084982,5.88526392,0.839471998,-0.098616707,-1.000380358
-0.188925192,-0.721826613,-0.665787995,-0.131081551,0.094982564,0.160660028,-0.502778888,-2.58564806,6.130158424,0.80643807,-0.276493593,-0.828994193
-0.188925192,-0.721826613,-0.665787995,-0.131081551,0.094982564,0.160660028,-0.502778888,-2.58564806,6.130158424,0.80643807,-0.276493593,-0.828994193
-0.188925192,-0.721826613,-0.665787995,-0.131081551,0.094982564,0.160660028,-0.502778888,-2.58564806,6.130158424,0.80643807,-0.276493593,-0.828994193
-0.421611965,-0.661557138,-0.620149612,-0.229464024,-0.596497476,-0.184691668,1.596230149,-3.216831446,4.859491348,0.722893311,-0.597077666,-0.533862027
-0.421611965,-0.661557138,-0.620149612,-0.229464024,-0.596497476,-0.184691668,1.596230149,-3.216831446,4.859491348,0.722893311,-0.597077666,-0.533862027
-0.421611965,-0.661557138,-0.620149612,-0.229464024,-0.596497476,-0.184691668,1.596230149,-3.216831446,4.859491348,0.722893311,-0.597077666,-0.533862027
-0.421611965,-0.661557138,-0.620149612,-0.229464024,-0.596497476,-0.184691668,1.596230149,-3.216831446,4.859491348,0.722893311,-0.597077666,-0.533862027
-0.421611965,-0.661557138,-0.620149612,-0.229464024,-0.596497476,-0.184691668,1.596230149,-3.216831446,4.859491348,0.722893311,-0.597077666,-0.533862027
-0.421611965,-0.661557138,-0.620149612,-0.229464024,-0.596497476,-0.184691668,1.596230149,-3.216831446,4.859491348,0.722893311,-0.597077666,-0.533862027
-0.421611965,-0.661557138,-0.620149612,-0.229464024,-0.596497476,-0.184691668,1.596230149,-3.216831446,4.859491348,0.722893311,-0.597077666,-0.533862027
-0.521101356,-0.634592652,-0.570741355,-0.578536868,-0.769610584,-0.239913762,1.622873187,-2.544661999,5.096191883,0.687481312,-0.739965041,-0.404777425
-0.521101356,-0.634592652,-0.570741355,-0.578536868,-0.769610584,-0.239913762,1.622873187,-2.544661999,5.096191883,0.687481312,-0.739965041,-0.404777425
-0.521101356,-0.634592652,-0.570741355,-0.578536868,-0.769610584,-0.239913762,1.622873187,-2.544661999,5.096191883,0.687481312,-0.739965041,-0.404777425
-0.603414893,-0.597497046,-0.528098345,-0.325339794,-0.554722667,0.051412225,1.606503129,-1.598127246,4.47577858,0.640376074,-0.851862795,-0.289588347
-0.603414893,-0.597497046,-0.528098345,-0.325339794,-0.554722667,0.051412225,1.606503129,-1.598127246,4.47577858,0.640376074,-0.851862795,-0.289588347
-0.603414893,-0.597497046,-0.528098345,-0.325339794,-0.554722667,0.051412225,1.606503129,-1.598127246,4.47577858,0.640376074,-0.851862795,-0.289588347
-0.664831638,-0.561901689,-0.492204696,0.028023541,-0.275620818,0.206894159,1.463180661,-1.398681998,3.659692526,0.596682967,-0.933503202,-0.197715322
-0.664831638,-0.561901689,-0.492204696,0.028023541,-0.275620818,0.206894159,1.463180661,-1.398681998,3.659692526,0.596682967,-0.933503202,-0.197715322
-0.803323209,-0.51718241,-0.295286387,-0.177371323,-0.598431468,-0.046681046,3.170865297,-0.92731905,1.615211725,0.543555579,-1.218545769,0.14693625
-0.803323209,-0.51718241,-0.295286387,-0.177371323,-0.598431468,-0.046681046,3.170865297,-0.92731905,1.615211725,0.543555579,-1.218545769,0.14693625
-0.803323209,-0.51718241,-0.295286387,-0.177371323,-0.598431468,-0.046681046,3.170865297,-0.92731905,1.615211725,0.543555579,-1.218545769,0.14693625
-0.824617982,-0.506053746,-0.252813518,-0.088754952,-0.602205515,0.008716047,1.858783841,-1.060875177,1.446905613,0.530603268,-1.273311441,0.213855387
-0.824617982,-0.506053746,-0.252813518,-0.088754952,-0.602205515,0.008716047,1.858783841,-1.060875177,1.446905613,0.530603268,-1.273311441,0.213855387
-0.824617982,-0.506053746,-0.252813518,-0.088754952,-0.602205515,0.008716047,1.858783841,-1.060875177,1.446905613,0.530603268,-1.273311441,0.213855387
-0.824617982,-0.506053746,-0.252813518,-0.088754952,-0.602205515,0.008716047,1.858783841,-1.060875177,1.446905613,0.530603268,-1.273311441,0.213855387
-0.824617982,-0.506053746,-0.252813518,-0.088754952,-0.602205515,0.008716047,1.858783841,-1.060875177,1.446905613,0.530603268,-1.273311441,0.213855387
-0.842442513,-0.490359813,-0.223244295,-0.173606873,-0.353525877,0.003270984,0.941874325,-0.847650528,1.190045476,0.512502566,-1.311753897,0.252065499
-0.892619967,-0.435493708,-0.116511516,-0.153122663,-0.125387281,-0.087257504,0.626163542,-0.763166249,0.42178756,0.450586646,-1.441002553,0.359789828
-0.892619967,-0.435493708,-0.116511516,-0.153122663,-0.125387281,-0.087257504,0.626163542,-0.763166249,0.42178756,0.450586646,-1.441002553,0.359789828
-0.892619967,-0.435493708,-0.116511516,-0.153122663,-0.125387281,-0.087257504,0.626163542,-0.763166249,0.42178756,0.450586646,-1.441002553,0.359789828
-0.897022545,-0.430679291,-0.099327452,-0.204017997,-0.126921088,-0.036738396,0.354902178,-0.642775595,0.26788342,0.445245315,-1.460515422,0.372460329
-0.897022545,-0.430679291,-0.099327452,-0.204017997,-0.126921088,-0.036738396,0.354902178,-0.642775595,0.26788342,0.445245315,-1.460515422,0.372460329
-0.897022545,-0.430679291,-0.099327452,-0.204017997,-0.126921088,-0.036738396,0.354902178,-0.642775595,0.26788342,0.445245315,-1.460515422,0.372460329
-0.897022545,-0.430679291,-0.099327452,-0.204017997,-0.126921088,-0.036738396,0.354902178,-0.642775595,0.26788342,0.445245315,-1.460515422,0.372460329
-0.897022545,-0.430679291,-0.099327452,-0.204017997,-0.126921088,-0.036738396,0.354902178,-0.642775595,0.26788342,0.445245315,-1.460515422,0.372460329
-0.897022545,-0.430679291,-0.099327452,-0.204017997,-0.126921088,-0.036738396,0.354902178,-0.642775595,0.26788342,0.445245315,-1.460515422,0.372460329
-0.89977622,-0.429301083,-0.078124702,-0.192353308,-0.012424171,-0.163867474,0.53857708,-0.281398177,-0.242748931,0.443718764,-1.484186724,0.377868489
-0.89977622,-0.429301083,-0.078124702,-0.192353308,-0.012424171,-0.163867474,0.53857708,-0.281398177,-0.242748931,0.443718764,-1.484186724,0.377868489
-0.89977622,-0.429301083,-0.078124702,-0.192353308,-0.012424171,-0.163867474,0.53857708,-0.281398177,-0.242748931,0.443718764,-1.484186724,0.377868489
-0.89977622,-0.429301083,-0.078124702,-0.192353308,-0.012424171,-0.163867474,0.53857708,-0.281398177,-0.242748931,0.443718764,-1.484186724,0.377868489
-0.89977622,-0.429301083,-0.078124702,-0.192353308,-0.012424171,-0.163867474,0.53857708,-0.281398177,-0.242748931,0.443718764,-1.484186724,0.377868489
-0.89977622,-0.429301083,-0.078124702,-0.192353308,-0.012424171,-0.163867474,0.53857708,-0.281398177,-0.242748931,0.443718764,-1.484186724,0.377868489
-0.898058236,-0.434499711,-0.068565868,-0.143167675,0.207282633,-0.277308524,1.026681185,0.060920306,-0.250120819,0.449482748,-1.494595138,0.395612288
-0.898058236,-0.434499711,-0.068565868,-0.143167675,0.207282633,-0.277308524,1.026681185,0.060920306,-0.250120819,0.449482748,-1.494595138,0.395612288
-0.898058236,-0.434499711,-0.068565868,-0.143167675,0.207282633,-0.277308524,1.026681185,0.060920306,-0.250120819,0.449482748,-1.494595138,0.395612288
-0.898058236,-0.434499711,-0.068565868,-0.143167675,0.207282633,-0.277308524,1.026681185,0.060920306,-0.250120819,0.449482748,-1.494595138,0.395612288
-0.898058236,-0.434499711,-0.068565868,-0.143167675,0.207282633,-0.277308524,1.026681185,0.060920306,-0.250120819,0.449482748,-1.494595138,0.395612288
-0.898058236,-0.434499711,-0.068565868,-0.143167675,0.207282633,-0.277308524,1.026681185,0.060920306,-0.250120819,0.449482748,-1.494595138,0.395612288
-0.892078817,-0.445841372,-0.073626749,-0.064598322,-0.096072942,-0.295837641,-0.769641161,0.325721651,0.042507671,0.46211399,-1.48844906,0.418228489
-0.892078817,-0.445841372,-0.073626749,-0.064598322,-0.096072942,-0.295837641,-0.769641161,0.325721651,0.042507671,0.46211399,-1.48844906,0.418228489
-0.892078817,-0.445841372,-0.073626749,-0.064598322,-0.096072942,-0.295837641,-0.769641161,0.325721651,0.042507671,0.46211399,-1.48844906,0.418228489
-0.892078817,-0.445841372,-0.073626749,-0.064598322,-0.096072942,-0.295837641,-0.769641161,0.325721651,0.042507671,0.46211399,-1.48844906,0.418228489
-0.892078817,-0.445841372,-0.073626749,-0.064598322,-0.096072942,-0.295837641,-0.769641161,0.325721651,0.042507671,0.46211399,-1.48844906,0.418228489
-0.892078817,-0.445841372,-0.073626749,-0.064598322,-0.096072942,-0.295837641,-0.769641161,0.325721651,0.042507671,0.46211399,-1.48844906,0.418228489
-0.892166913,-0.442948848,-0.088514544,0.019214571,-0.114056498,-0.085591257,-1.340676308,0.119502515,-0.023481624,0.458885132,-1.471906954,0.392114114
-0.892166913,-0.442948848,-0.088514544,0.019214571,-0.114056498,-0.085591257,-1.340676308,0.119502515,-0.023481624,0.458885132,-1.471906954,0.392114114
-0.892166913,-0.442948848,-0.088514544,0.019214571,-0.114056498,-0.085591257,-1.340676308,0.119502515,-0.023481624,0.458885132,-1.471906954,0.392114114
-0.892166913,-0.442948848,-0.088514544,0.019214571,-0.114056498,-0.085591257,-1.340676308,0.119502515,-0.023481624,0.458885132,-1.471906954,0.392114114
-0.892166913,-0.442948848,-0.088514544,0.019214571,-0.114056498,-0.085591257,-1.340676308,0.119502515,-0.023481624,0.458885132,-1.471906954,0.392114114
-0.892166913,-0.442948848,-0.088514544,0.019214571,-0.114056498,-0.085591257,-1.340676308,0.119502515,-0.023481624,0.458885132,-1.471906954,0.392114114
-0.891746938,-0.441745937,-0.098224163,0.019588232,0.073247731,-0.00215137,-0.873535216,-0.109102249,-0.052950248,0.457543853,-1.461090549,0.366855923
-0.891746938,-0.441745937,-0.098224163,0.019588232,0.073247731,-0.00215137,-0.873535216,-0.109102249,-0.052950248,0.457543853,-1.461090549,0.366855923
-0.891746938,-0.441745937,-0.098224163,0.019588232,0.073247731,-0.00215137,-0.873535216,-0.109102249,-0.052950248,0.457543853,-1.461090549,0.366855923
-0.891212285,-0.441999257,-0.101868913,-0.002110183,0.090163827,0.070371389,-0.46324572,-0.104291216,-0.13689512,0.457826246,-1.456986503,0.352273891
-0.891212285,-0.441999257,-0.101868913,-0.002110183,0.090163827,0.070371389,-0.46324572,-0.104291216,-0.13689512,0.457826246,-1.456986503,0.352273891
-0.890099049,-0.44377172,-0.103878058,0.015255034,0.030275524,0.098579884,-0.466404945,-0.094842926,-0.118887022,0.459803147,-1.454617937,0.342744856
-0.890099049,-0.44377172,-0.103878058,0.015255034,0.030275524,0.098579884,-0.466404945,-0.094842926,-0.118887022,0.459803147,-1.454617937,0.342744856
-0.890099049,-0.44377172,-0.103878058,0.015255034,0.030275524,0.098579884,-0.466404945,-0.094842926,-0.118887022,0.459803147,-1.454617937,0.342744856
-0.890099049,-0.44377172,-0.103878058,0.015255034,0.030275524,0.098579884,-0.466404945,-0.094842926,-0.118887022,0.459803147,-1.454617937,0.342744856
-0.890099049,-0.44377172,-0.103878058,0.015255034,0.030275524,0.098579884,-0.466404945,-0.094842926,-0.118887022,0.459803147,-1.454617937,0.342744856
-0.890099049,-0.44377172,-0.103878058,0.015255034,0.030275524,0.098579884,-0.466404945,-0.094842926,-0.118887022,0.459803147,-1.454617937,0.342744856
-0.890099049,-0.44377172,-0.103878058,0.015255034,0.030275524,0.098579884,-0.466404945,-0.094842926,-0.118887022,0.459803147,-1.454617937,0.342744856
-0.889500022,-0.44402948,-0.107831776,-0.006629825,-0.065474927,0.099237442,-0.722577512,-0.062756702,-0.095966905,0.46009081,-1.450157595,0.328694626
-0.889500022,-0.44402948,-0.107831776,-0.006629825,-0.065474927,0.099237442,-0.722577512,-0.062756702,-0.095966905,0.46009081,-1.450157595,0.328694626
-0.889500022,-0.44402948,-0.107831776,-0.006629825,-0.065474927,0.099237442,-0.722577512,-0.062756702,-0.095966905,0.46009081,-1.450157595,0.328694626
-0.889039874,-0.443354517,-0.114214107,-0.05387336,-0.066058367,0.079359412,-0.711038589,0.043087076,-0.001991618,0.459337675,-1.443027123,0.312127205
-0.889039874,-0.443354517,-0.114214107,-0.05387336,-0.066058367,0.079359412,-0.711038589,0.043087076,-0.001991618,0.459337675,-1.443027123,0.312127205
-0.889039874,-0.443354517,-0.114214107,-0.05387336,-0.066058367,0.079359412,-0.711038589,0.043087076,-0.001991618,0.459337675,-1.443027123,0.312127205
-0.888617814,-0.442807913,-0.119497046,-0.032658458,0.08042872,0.064149737,-0.286609948,0.040549327,-0.091523901,0.458727928,-1.437123054,0.300861427
-0.888617814,-0.442807913,-0.119497046,-0.032658458,0.08042872,0.064149737,-0.286609948,0.040549327,-0.091523901,0.458727928,-1.437123054,0.300861427
-0.888617814,-0.442807913,-0.119497046,-0.032658458,0.08042872,0.064149737,-0.286609948,0.040549327,-0.091523901,0.458727928,-1.437123054,0.300861427
-0.888617814,-0.442807913,-0.119497046,-0.032658458,0.08042872,0.064149737,-0.286609948,0.040549327,-0.091523901,0.458727928,-1.437123054,0.300861427
-0.888617814,-0.442807913,-0.119497046,-0.032658458,0.08042872,0.064149737,-0.286609948,0.040549327,-0.091523901,0.458727928,-1.437123054,0.300861427
-0.888617814,-0.442807913,-0.119497046,-0.032658458,0.08042872,0.064149737,-0.286609948,0.040549327,-0.091523901,0.458727928,-1.437123054,0.300861427
-0.887456417,-0.444578409,-0.121537037,-0.027182043,0.104980677,0.037106395,-0.152922273,0.01371482,-0.134967238,0.460703527,-1.434693131,0.296636494
-0.887456417,-0.444578409,-0.121537037,-0.027182043,0.104980677,0.037106395,-0.152922273,0.01371482,-0.134967238,0.460703527,-1.434693131,0.296636494
-0.887456417,-0.444578409,-0.121537037,-0.027182043,0.104980677,0.037106395,-0.152922273,0.01371482,-0.134967238,0.460703527,-1.434693131,0.296636494
-0.8858729,-0.448306739,-0.11937508,-0.045168757,-0.013452828,-0.010526776,-0.696496606,0.057521258,-0.066717245,0.464870156,-1.436849025,0.29028471
-0.8858729,-0.448306739,-0.11937508,-0.045168757,-0.013452828,-0.010526776,-0.696496606,0.057521258,-0.066717245,0.464870156,-1.436849025,0.29028471
-0.8858729,-0.448306739,-0.11937508,-0.045168757,-0.013452828,-0.010526776,-0.696496606,0.057521258,-0.066717245,0.464870156,-1.436849025,0.29028471
-0.8858729,-0.448306739,-0.11937508,-0.045168757,-0.013452828,-0.010526776,-0.696496606,0.057521258,-0.066717245,0.464870156,-1.436849025,0.29028471
-0.8858729,-0.448306739,-0.11937508,-0.045168757,-0.013452828,-0.010526776,-0.696496606,0.057521258,-0.066717245,0.464870156,-1.436849025,0.29028471
-0.8858729,-0.448306739,-0.11937508,-0.045168757,-0.013452828,-0.010526776,-0.696496606,0.057521258,-0.066717245,0.464870156,-1.436849025,0.29028471
-0.8858729,-0.448306739,-0.11937508,-0.045168757,-0.013452828,-0.010526776,-0.696496606,0.057521258,-0.066717245,0.464870156,-1.436849025,0.29028471
-0.884248555,-0.451546937,-0.119205892,-0.056162059,-0.017643631,-0.062240124,-0.896720588,0.134684563,-0.041195162,0.468498339,-1.436793816,0.27568147
-0.884248555,-0.451546937,-0.119205892,-0.056162059,-0.017643631,-0.062240124,-0.896720588,0.134684563,-0.041195162,0.468498339,-1.436793816,0.27568147
-0.884248555,-0.451546937,-0.119205892,-0.056162059,-0.017643631,-0.062240124,-0.896720588,0.134684563,-0.041195162,0.468498339,-1.436793816,0.27568147
-0.884248555,-0.451546937,-0.119205892,-0.056162059,-0.017643631,-0.062240124,-0.896720588,0.134684563,-0.041195162,0.468498339,-1.436793816,0.27568147
-0.884248555,-0.451546937,-0.119205892,-0.056162059,-0.017643631,-0.062240124,-0.896720588,0.134684563,-0.041195162,0.468498339,-1.436793816,0.27568147
-0.886333525,-0.446781665,-0.121651344,-0.031829596,0.109976411,-0.09498167,-0.362505376,0.130696774,-0.03097022,0.463164743,-1.434396242,0.264186782
-0.886333525,-0.446781665,-0.121651344,-0.031829596,0.109976411,-0.09498167,-0.362505376,0.130696774,-0.03097022,0.463164743,-1.434396242,0.264186782
-0.886333525,-0.446781665,-0.121651344,-0.031829596,0.109976411,-0.09498167,-0.362505376,0.130696774,-0.03097022,0.463164743,-1.434396242,0.264186782
-0.886333525,-0.446781665,-0.121651344,-0.031829596,0.109976411,-0.09498167,-0.362505376,0.130696774,-0.03097022,0.463164743,-1.434396242,0.264186782
-0.886333525,-0.446781665,-0.121651344,-0.031829596,0.109976411,-0.09498167,-0.362505376,0.130696774,-0.03097022,0.463164743,-1.434396242,0.264186782
-0.886333525,-0.446781665,-0.121651344,-0.031829596,0.109976411,-0.09498167,-0.362505376,0.130696774,-0.03097022,0.463164743,-1.434396242,0.264186782
-0.889144957,-0.441143811,-0.121710271,-0.017101228,0.126189023,-0.081357479,0.062252223,0.101642087,-0.091220833,0.456872792,-1.434757179,0.26314585
-0.889144957,-0.441143811,-0.121710271,-0.017101228,0.126189023,-0.081357479,0.062252223,0.101642087,-0.091220833,0.456872792,-1.434757179,0.26314585
-0.889144957,-0.441143811,-0.121710271,-0.017101228,0.126189023,-0.081357479,0.062252223,0.101642087,-0.091220833,0.456872792,-1.434757179,0.26314585
-0.889144957,-0.441143811,-0.121710271,-0.017101228,0.126189023,-0.081357479,0.062252223,0.101642087,-0.091220833,0.456872792,-1.434757179,0.26314585
-0.889144957,-0.441143811,-0.121710271,-0.017101228,0.126189023,-0.081357479,0.062252223,0.101642087,-0.091220833,0.456872792,-1.434757179,0.26314585
-0.889144957,-0.441143811,-0.121710271,-0.017101228,0.126189023,-0.081357479,0.062252223,0.101642087,-0.091220833,0.456872792,-1.434757179,0.26314585
-0.888793528,-0.441788822,-0.121938311,-0.010815084,0.038470387,-0.032667518,0.171544939,0.104105204,-0.093705937,0.457591646,-1.434452204,0.266078704
-0.888793528,-0.441788822,-0.121938311,-0.010815084,0.038470387,-0.032667518,0.171544939,0.104105204,-0.093705937,0.457591646,-1.434452204,0.266078704
-0.888793528,-0.441788822,-0.121938311,-0.010815084,0.038470387,-0.032667518,0.171544939,0.104105204,-0.093705937,0.457591646,-1.434452204,0.266078704
-0.888793528,-0.441788822,-0.121938311,-0.010815084,0.038470387,-0.032667518,0.171544939,0.104105204,-0.093705937,0.457591646,-1.434452204,0.266078704
-0.888793528,-0.441788822,-0.121938311,-0.010815084,0.038470387,-0.032667518,0.171544939,0.104105204,-0.093705937,0.457591646,-1.434452204,0.266078704
-0.888793528,-0.441788822,-0.121938311,-0.010815084,0.038470387,-0.032667518,0.171544939,0.104105204,-0.093705937,0.457591646,-1.434452204,0.266078704
-0.887368381,-0.443701804,-0.125324875,0.006192625,0.00634113,-0.001021802,-0.065838367,0.075384334,-0.035509098,0.459725138,-1.4304922,0.266325422
-0.887368381,-0.443701804,-0.125324875,0.006192625,0.00634113,-0.001021802,-0.065838367,0.075384334,-0.035509098,0.459725138,-1.4304922,0.266325422
-0.887368381,-0.443701804,-0.125324875,0.006192625,0.00634113,-0.001021802,-0.065838367,0.075384334,-0.035509098,0.459725138,-1.4304922,0.266325422
-0.887368381,-0.443701804,-0.125324875,0.006192625,0.00634113,-0.001021802,-0.065838367,0.075384334,-0.035509098,0.459725138,-1.4304922,0.266325422
-0.887368381,-0.443701804,-0.125324875,0.006192625,0.00634113,-0.001021802,-0.065838367,0.075384334,-0.035509098,0.459725138,-1.4304922,0.266325422
-0.887368381,-0.443701804,-0.125324875,0.006192625,0.00634113,-0.001021802,-0.065838367,0.075384334,-0.035509098,0.459725138,-1.4304922,0.266325422
-0.888715744,-0.438591868,-0.133497506,0.006777048,-0.03198719,0.010278821,-0.221071556,0.033910368,0.019540358,0.454031185,-1.421697137,0.259919838
-0.888715744,-0.438591868,-0.133497506,0.006777048,-0.03198719,0.010278821,-0.221071556,0.033910368,0.019540358,0.454031185,-1.421697137,0.259919838
-0.888715744,-0.438591868,-0.133497506,0.006777048,-0.03198719,0.010278821,-0.221071556,0.033910368,0.019540358,0.454031185,-1.421697137,0.259919838
-0.891426504,-0.430943191,-0.140166909,0.008252084,0.101324886,0.02329576,0.106559873,0.039446864,0.022983931,0.445537733,-1.41483441,0.255686204
-0.891426504,-0.430943191,-0.140166909,0.008252084,0.101324886,0.02329576,0.106559873,0.039446864,0.022983931,0.445537733,-1.41483441,0.255686204
-0.891426504,-0.430943191,-0.140166909,0.008252084,0.101324886,0.02329576,0.106559873,0.039446864,0.022983931,0.445537733,-1.41483441,0.255686204
-0.891426504,-0.430943191,-0.140166909,0.008252084,0.101324886,0.02329576,0.106559873,0.039446864,0.022983931,0.445537733,-1.41483441,0.255686204
-0.891426504,-0.430943191,-0.140166909,0.008252084,0.101324886,0.02329576,0.106559873,0.039446864,0.022983931,0.445537733,-1.41483441,0.255686204
-0.892176449,-0.42972818,-0.139121845,0.06469655,0.154248059,0.02077055,0.552472413,-0.025115389,-0.110683315,0.444191735,-1.416106759,0.262184562
-0.892176449,-0.42972818,-0.139121845,0.06469655,0.154248059,0.02077055,0.552472413,-0.025115389,-0.110683315,0.444191735,-1.416106759,0.262184562
-0.892176449,-0.42972818,-0.139121845,0.06469655,0.154248059,0.02077055,0.552472413,-0.025115389,-0.110683315,0.444191735,-1.416106759,0.262184562
-0.892176449,-0.42972818,-0.139121845,0.06469655,0.154248059,0.02077055,0.552472413,-0.025115389,-0.110683315,0.444191735,-1.416106759,0.262184562
-0.889902771,-0.435463369,-0.135811672,-0.1387797,-0.191487759,0.065388441,-0.521319926,0.261658221,-0.193471029,0.450552962,-1.419350831,0.267389938
-0.889902771,-0.435463369,-0.135811672,-0.1387797,-0.191487759,0.065388441,-0.521319926,0.261658221,-0.193471029,0.450552962,-1.419350831,0.267389938
-0.889902771,-0.435463369,-0.135811672,-0.1387797,-0.191487759,0.065388441,-0.521319926,0.261658221,-0.193471029,0.450552962,-1.419350831,0.267389938
-0.888866663,-0.434683353,-0.144798517,0.013504326,-0.092795849,-0.023677528,-0.461103082,0.20062013,-0.133312896,0.44968663,-1.409312394,0.254026816
-0.888866663,-0.434683353,-0.144798517,0.013504326,-0.092795849,-0.023677528,-0.461103082,0.20062013,-0.133312896,0.44968663,-1.409312394,0.254026816
-0.888866663,-0.434683353,-0.144798517,0.013504326,-0.092795849,-0.023677528,-0.461103082,0.20062013,-0.133312896,0.44968663,-1.409312394,0.254026816
-0.888866663,-0.434683353,-0.144798517,0.013504326,-0.092795849,-0.023677528,-0.461103082,0.20062013,-0.133312896,0.44968663,-1.409312394,0.254026816
-0.888866663,-0.434683353,-0.144798517,0.013504326,-0.092795849,-0.023677528,-0.461103082,0.20062013,-0.133312896,0.44968663,-1.409312394,0.254026816
-0.888866663,-0.434683353,-0.144798517,0.013504326,-0.092795849,-0.023677528,-0.461103082,0.20062013,-0.133312896,0.44968663,-1.409312394,0.254026816
-0.889006138,-0.433268487,-0.148143664,0.092028379,-0.054598808,-0.044456601,-0.313016087,-0.019806158,-0.15738818,0.448116181,-1.405673941,0.246388173
-0.889006138,-0.433268487,-0.148143664,0.092028379,-0.054598808,-0.044456601,-0.313016087,-0.019806158,-0.15738818,0.448116181,-1.405673941,0.246388173
-0.889006138,-0.433268487,-0.148143664,0.092028379,-0.054598808,-0.044456601,-0.313016087,-0.019806158,-0.15738818,0.448116181,-1.405673941,0.246388173
-0.889006138,-0.433268487,-0.148143664,0.092028379,-0.054598808,-0.044456601,-0.313016087,-0.019806158,-0.15738818,0.448116181,-1.405673941,0.246388173
-0.889006138,-0.433268487,-0.148143664,0.092028379,-0.054598808,-0.044456601,-0.313016087,-0.019806158,-0.15738818,0.448116181,-1.405673941,0.246388173
-0.889006138,-0.433268487,-0.148143664,0.092028379,-0.054598808,-0.044456601,-0.313016087,-0.019806158,-0.15738818,0.448116181,-1.405673941,0.246388173
-0.888516903,-0.433880776,-0.149281859,-0.007612646,-0.067780584,-0.028318882,-0.32561928,-0.013482845,-0.047112491,0.448795665,-1.404338574,0.239468508
-0.888516903,-0.433880776,-0.149281859,-0.007612646,-0.067780584,-0.028318882,-0.32561928,-0.013482845,-0.047112491,0.448795665,-1.404338574,0.239468508
-0.888516903,-0.433880776,-0.149281859,-0.007612646,-0.067780584,-0.028318882,-0.32561928,-0.013482845,-0.047112491,0.448795665,-1.404338574,0.239468508
-0.888516903,-0.433880776,-0.149281859,-0.007612646,-0.067780584,-0.028318882,-0.32561928,-0.013482845,-0.047112491,0.448795665,-1.404338574,0.239468508
-0.888516903,-0.433880776,-0.149281859,-0.007612646,-0.067780584,-0.028318882,-0.32561928,-0.013482845,-0.047112491,0.448795665,-1.404338574,0.239468508