gravityX,gravityY,gravityZ,accelX,accelY,accelZ,rotRateX,rotRatY,rotRateZ,attPitch,attRoll,attYaw
-0.92422545,-0.374820471,-0.07291773,-0.003569841,-0.025264919,-0.0059551,0.414679408,0.060681686,-0.096107304,0.38420312,-1.492063372,0.408120638
-0.92422545,-0.374820471,-0.07291773,-0.003569841,-0.025264919,-0.0059551,0.414679408,0.060681686,-0.096107304,0.38420312,-1.492063372,0.408120638
-0.92422545,-0.374820471,-0.07291773,-0.003569841,-0.025264919,-0.0059551,0.414679408,0.060681686,-0.096107304,0.38420312,-1.492063372,0.408120638
-0.92422545,-0.374820471,-0.07291773,-0.003569841,-0.025264919,-0.0059551,0.414679408,0.060681686,-0.096107304,0.38420312,-1.492063372,0.408120638
-0.92422545,-0.374820471,-0.07291773,-0.003569841,-0.025264919,-0.0059551,0.414679408,0.060681686,-0.096107304,0.38420312,-1.492063372,0.408120638
-0.92422545,-0.374820471,-0.07291773,-0.003569841,-0.025264919,-0.0059551,0.414679408,0.060681686,-0.096107304,0.38420312,-1.492063372,0.408120638
-0.92422545,-0.374820471,-0.07291773,-0.003569841,-0.025264919,-0.0059551,0.414679408,0.060681686,-0.096107304,0.38420312,-1.492063372,0.408120638
-0.92422545,-0.374820471,-0.07291773,-0.003569841,-0.025264919,-0.0059551,0.414679408,0.060681686,-0.096107304,0.38420312,-1.492063372,0.408120638
-0.92422545,-0.374820471,-0.07291773,-0.003569841,-0.025264919,-0.0059551,0.414679408,0.060681686,-0.096107304,0.38420312,-1.492063372,0.408120638
-0.92422545,-0.374820471,-0.07291773,-0.003569841,-0.025264919,-0.0059551,0.414679408,0.060681686,-0.096107304,0.38420312,-1.492063372,0.408120638
-0.92422545,-0.374820471,-0.07291773,-0.003569841,-0.025264919,-0.0059551,0.414679408,0.060681686,-0.096107304,0.38420312,-1.492063372,0.408120638
-0.92422545,-0.374820471,-0.07291773,-0.003569841,-0.025264919,-0.0059551,0.414679408,0.060681686,-0.096107304,0.38420312,-1.492063372,0.408120638
-0.92422545,-0.374820471,-0.07291773,-0.003569841,-0.025264919,-0.0059551,0.414679408,0.060681686,-0.096107304,0.38420312,-1.492063372,0.408120638
-0.92422545,-0.374820471,-0.07291773,-0.003569841,-0.025264919,-0.0059551,0.414679408,0.060681686,-0.096107304,0.38420312,-1.492063372,0.408120638
-0.92422545,-0.374820471,-0.07291773,-0.003569841,-0.025264919,-0.0059551,0.414679408,0.060681686,-0.096107304,0.38420312,-1.492063372,0.408120638
-0.92422545,-0.374820471,-0.07291773,-0.003569841,-0.025264919,-0.0059551,0.414679408,0.060681686,-0.096107304,0.38420312,-1.492063372,0.408120638
-0.92320329,-0.377878368,-0.070024081,0.020662069,0.005243808,0.03019774,0.45498842,-0.042621497,-0.138051823,0.387503691,-1.495092245,0.425462749
-0.92320329,-0.377878368,-0.070024081,0.020662069,0.005243808,0.03019774,0.45498842,-0.042621497,-0.138051823,0.387503691,-1.495092245,0.425462749
-0.92320329,-0.377878368,-0.070024081,0.020662069,0.005243808,0.03019774,0.45498842,-0.042621497,-0.138051823,0.387503691,-1.495092245,0.425462749
-0.92320329,-0.377878368,-0.070024081,0.020662069,0.005243808,0.03019774,0.45498842,-0.042621497,-0.138051823,0.387503691,-1.495092245,0.425462749
-0.92320329,-0.377878368,-0.070024081,0.020662069,0.005243808,0.03019774,0.45498842,-0.042621497,-0.138051823,0.387503691,-1.495092245,0.425462749
-0.92320329,-0.377878368,-0.070024081,0.020662069,0.005243808,0.03019774,0.45498842,-0.042621497,-0.138051823,0.387503691,-1.495092245,0.425462749
-0.92320329,-0.377878368,-0.070024081,0.020662069,0.005243808,0.03019774,0.45498842,-0.042621497,-0.138051823,0.387503691,-1.495092245,0.425462749
-0.92320329,-0.377878368,-0.070024081,0.020662069,0.005243808,0.03019774,0.45498842,-0.042621497,-0.138051823,0.387503691,-1.495092245,0.425462749
-0.92320329,-0.377878368,-0.070024081,0.020662069,0.005243808,0.03019774,0.45498842,-0.042621497,-0.138051823,0.387503691,-1.495092245,0.425462749
-0.92320329,-0.377878368,-0.070024081,0.020662069,0.005243808,0.03019774,0.45498842,-0.042621497,-0.138051823,0.387503691,-1.495092245,0.425462749
-0.92320329,-0.377878368,-0.070024081,0.020662069,0.005243808,0.03019774,0.45498842,-0.042621497,-0.138051823,0.387503691,-1.495092245,0.425462749
-0.92320329,-0.377878368,-0.070024081,0.020662069,0.005243808,0.03019774,0.45498842,-0.042621497,-0.138051823,0.387503691,-1.495092245,0.425462749
-0.92320329,-0.377878368,-0.070024081,0.020662069,0.005243808,0.03019774,0.45498842,-0.042621497,-0.138051823,0.387503691,-1.495092245,0.425462749
-0.92320329,-0.377878368,-0.070024081,0.020662069,0.005243808,0.03019774,0.45498842,-0.042621497,-0.138051823,0.387503691,-1.495092245,0.425462749
-0.92320329,-0.377878368,-0.070024081,0.020662069,0.005243808,0.03019774,0.45498842,-0.042621497,-0.138051823,0.387503691,-1.495092245,0.425462749
-0.922701716,-0.379838377,-0.065913133,-0.041897237,-0.068113685,-0.000859976,-0.058793746,-0.116368301,-0.032203745,0.389621579,-1.499482537,0.434380734
-0.922701716,-0.379838377,-0.065913133,-0.041897237,-0.068113685,-0.000859976,-0.058793746,-0.116368301,-0.032203745,0.389621579,-1.499482537,0.434380734
-0.922701716,-0.379838377,-0.065913133,-0.041897237,-0.068113685,-0.000859976,-0.058793746,-0.116368301,-0.032203745,0.389621579,-1.499482537,0.434380734
-0.922701716,-0.379838377,-0.065913133,-0.041897237,-0.068113685,-0.000859976,-0.058793746,-0.116368301,-0.032203745,0.389621579,-1.499482537,0.434380734
-0.922701716,-0.379838377,-0.065913133,-0.041897237,-0.068113685,-0.000859976,-0.058793746,-0.116368301,-0.032203745,0.389621579,-1.499482537,0.434380734
-0.922701716,-0.379838377,-0.065913133,-0.041897237,-0.068113685,-0.000859976,-0.058793746,-0.116368301,-0.032203745,0.389621579,-1.499482537,0.434380734
-0.922701716,-0.379838377,-0.065913133,-0.041897237,-0.068113685,-0.000859976,-0.058793746,-0.116368301,-0.032203745,0.389621579,-1.499482537,0.434380734
-0.922701716,-0.379838377,-0.065913133,-0.041897237,-0.068113685,-0.000859976,-0.058793746,-0.116368301,-0.032203745,0.389621579,-1.499482537,0.434380734
-0.922701716,-0.379838377,-0.065913133,-0.041897237,-0.068113685,-0.000859976,-0.058793746,-0.116368301,-0.032203745,0.389621579,-1.499482537,0.434380734
-0.922701716,-0.379838377,-0.065913133,-0.041897237,-0.068113685,-0.000859976,-0.058793746,-0.116368301,-0.032203745,0.389621579,-1.499482537,0.434380734
-0.922701716,-0.379838377,-0.065913133,-0.041897237,-0.068113685,-0.000859976,-0.058793746,-0.116368301,-0.032203745,0.389621579,-1.499482537,0.434380734
-0.922701716,-0.379838377,-0.065913133,-0.041897237,-0.068113685,-0.000859976,-0.058793746,-0.116368301,-0.032203745,0.389621579,-1.499482537,0.434380734
-0.920614719,-0.38575387,-0.060520709,-0.025567353,0.001903832,-0.030040324,0.3654733,-0.088369086,-0.063351862,0.396024794,-1.50515133,0.437494823
-0.920614719,-0.38575387,-0.060520709,-0.025567353,0.001903832,-0.030040324,0.3654733,-0.088369086,-0.063351862,0.396024794,-1.50515133,0.437494823
-0.920614719,-0.38575387,-0.060520709,-0.025567353,0.001903832,-0.030040324,0.3654733,-0.088369086,-0.063351862,0.396024794,-1.50515133,0.437494823
-0.920614719,-0.38575387,-0.060520709,-0.025567353,0.001903832,-0.030040324,0.3654733,-0.088369086,-0.063351862,0.396024794,-1.50515133,0.437494823
-0.920614719,-0.38575387,-0.060520709,-0.025567353,0.001903832,-0.030040324,0.3654733,-0.088369086,-0.063351862,0.396024794,-1.50515133,0.437494823
-0.920614719,-0.38575387,-0.060520709,-0.025567353,0.001903832,-0.030040324,0.3654733,-0.088369086,-0.063351862,0.396024794,-1.50515133,0.437494823
-0.920614719,-0.38575387,-0.060520709,-0.025567353,0.001903832,-0.030040324,0.3654733,-0.088369086,-0.063351862,0.396024794,-1.50515133,0.437494823
-0.920614719,-0.38575387,-0.060520709,-0.025567353,0.001903832,-0.030040324,0.3654733,-0.088369086,-0.063351862,0.396024794,-1.50515133,0.437494823
-0.920614719,-0.38575387,-0.060520709,-0.025567353,0.001903832,-0.030040324,0.3654733,-0.088369086,-0.063351862,0.396024794,-1.50515133,0.437494823
-0.920614719,-0.38575387,-0.060520709,-0.025567353,0.001903832,-0.030040324,0.3654733,-0.088369086,-0.063351862,0.396024794,-1.50515133,0.437494823
-0.920614719,-0.38575387,-0.060520709,-0.025567353,0.001903832,-0.030040324,0.3654733,-0.088369086,-0.063351862,0.396024794,-1.50515133,0.437494823
-0.920614719,-0.38575387,-0.060520709,-0.025567353,0.001903832,-0.030040324,0.3654733,-0.088369086,-0.063351862,0.396024794,-1.50515133,0.437494823
-0.920614719,-0.38575387,-0.060520709,-0.025567353,0.001903832,-0.030040324,0.3654733,-0.088369086,-0.063351862,0.396024794,-1.50515133,0.437494823
-0.920614719,-0.38575387,-0.060520709,-0.025567353,0.001903832,-0.030040324,0.3654733,-0.088369086,-0.063351862,0.396024794,-1.50515133,0.437494823
-0.920614719,-0.38575387,-0.060520709,-0.025567353,0.001903832,-0.030040324,0.3654733,-0.088369086,-0.063351862,0.396024794,-1.50515133,0.437494823
-0.920614719,-0.38575387,-0.060520709,-0.025567353,0.001903832,-0.030040324,0.3654733,-0.088369086,-0.063351862,0.396024794,-1.50515133,0.437494823
-0.920614719,-0.38575387,-0.060520709,-0.025567353,0.001903832,-0.030040324,0.3654733,-0.088369086,-0.063351862,0.396024794,-1.50515133,0.437494823
-0.920614719,-0.38575387,-0.060520709,-0.025567353,0.001903832,-0.030040324,0.3654733,-0.088369086,-0.063351862,0.396024794,-1.50515133,0.437494823
-0.920614719,-0.38575387,-0.060520709,-0.025567353,0.001903832,-0.030040324,0.3654733,-0.088369086,-0.063351862,0.396024794,-1.50515133,0.437494823
-0.920614719,-0.38575387,-0.060520709,-0.025567353,0.001903832,-0.030040324,0.3654733,-0.088369086,-0.063351862,0.396024794,-1.50515133,0.437494823
-0.919987977,-0.388979852,-0.048132479,0.017888963,-0.086163342,-0.055338085,0.226707965,-0.186673582,0.046087068,0.399523962,-1.518525389,0.455744992
-0.919987977,-0.388979852,-0.048132479,0.017888963,-0.086163342,-0.055338085,0.226707965,-0.186673582,0.046087068,0.399523962,-1.518525389,0.455744992
-0.919987977,-0.388979852,-0.048132479,0.017888963,-0.086163342,-0.055338085,0.226707965,-0.186673582,0.046087068,0.399523962,-1.518525389,0.455744992
-0.919987977,-0.388979852,-0.048132479,0.017888963,-0.086163342,-0.055338085,0.226707965,-0.186673582,0.046087068,0.399523962,-1.518525389,0.455744992
-0.919987977,-0.388979852,-0.048132479,0.017888963,-0.086163342,-0.055338085,0.226707965,-0.186673582,0.046087068,0.399523962,-1.518525389,0.455744992
-0.919987977,-0.388979852,-0.048132479,0.017888963,-0.086163342,-0.055338085,0.226707965,-0.186673582,0.046087068,0.399523962,-1.518525389,0.455744992
-0.919987977,-0.388979852,-0.048132479,0.017888963,-0.086163342,-0.055338085,0.226707965,-0.186673582,0.046087068,0.399523962,-1.518525389,0.455744992
-0.919987977,-0.388979852,-0.048132479,0.017888963,-0.086163342,-0.055338085,0.226707965,-0.186673582,0.046087068,0.399523962,-1.518525389,0.455744992
-0.919987977,-0.388979852,-0.048132479,0.017888963,-0.086163342,-0.055338085,0.226707965,-0.186673582,0.046087068,0.399523962,-1.518525389,0.455744992
-0.919987977,-0.388979852,-0.048132479,0.017888963,-0.086163342,-0.055338085,0.226707965,-0.186673582,0.046087068,0.399523962,-1.518525389,0.455744992
-0.919987977,-0.388979852,-0.048132479,0.017888963,-0.086163342,-0.055338085,0.226707965,-0.186673582,0.046087068,0.399523962,-1.518525389,0.455744992
-0.919987977,-0.388979852,-0.048132479,0.017888963,-0.086163342,-0.055338085,0.226707965,-0.186673582,0.046087068,0.399523962,-1.518525389,0.455744992
-0.919987977,-0.388979852,-0.048132479,0.017888963,-0.086163342,-0.055338085,0.226707965,-0.186673582,0.046087068,0.399523962,-1.518525389,0.455744992
-0.919987977,-0.388979852,-0.048132479,0.017888963,-0.086163342,-0.055338085,0.226707965,-0.186673582,0.046087068,0.399523962,-1.518525389,0.455744992
-0.919987977,-0.388979852,-0.048132479,0.017888963,-0.086163342,-0.055338085,0.226707965,-0.186673582,0.046087068,0.399523962,-1.518525389,0.455744992
-0.919987977,-0.388979852,-0.048132479,0.017888963,-0.086163342,-0.055338085,0.226707965,-0.186673582,0.046087068,0.399523962,-1.518525389,0.455744992
-0.919987977,-0.388979852,-0.048132479,0.017888963,-0.086163342,-0.055338085,0.226707965,-0.186673582,0.046087068,0.399523962,-1.518525389,0.455744992
-0.919987977,-0.388979852,-0.048132479,0.017888963,-0.086163342,-0.055338085,0.226707965,-0.186673582,0.046087068,0.399523962,-1.518525389,0.455744992
-0.919987977,-0.388979852,-0.048132479,0.017888963,-0.086163342,-0.055338085,0.226707965,-0.186673582,0.046087068,0.399523962,-1.518525389,0.455744992
-0.919987977,-0.388979852,-0.048132479,0.017888963,-0.086163342,-0.055338085,0.226707965,-0.186673582,0.046087068,0.399523962,-1.518525389,0.455744992
-0.919987977,-0.388979852,-0.048132479,0.017888963,-0.086163342,-0.055338085,0.226707965,-0.186673582,0.046087068,0.399523962,-1.518525389,0.455744992
-0.920857787,-0.387675405,-0.041581117,0.029546857,-0.073093951,-0.059966803,-0.13687624,-0.360477775,0.019227702,0.398108453,-1.525672215,0.45499064
-0.920857787,-0.387675405,-0.041581117,0.029546857,-0.073093951,-0.059966803,-0.13687624,-0.360477775,0.019227702,0.398108453,-1.525672215,0.45499064
-0.920857787,-0.387675405,-0.041581117,0.029546857,-0.073093951,-0.059966803,-0.13687624,-0.360477775,0.019227702,0.398108453,-1.525672215,0.45499064
-0.920857787,-0.387675405,-0.041581117,0.029546857,-0.073093951,-0.059966803,-0.13687624,-0.360477775,0.019227702,0.398108453,-1.525672215,0.45499064
-0.920857787,-0.387675405,-0.041581117,0.029546857,-0.073093951,-0.059966803,-0.13687624,-0.360477775,0.019227702,0.398108453,-1.525672215,0.45499064
-0.920857787,-0.387675405,-0.041581117,0.029546857,-0.073093951,-0.059966803,-0.13687624,-0.360477775,0.019227702,0.398108453,-1.525672215,0.45499064
-0.920857787,-0.387675405,-0.041581117,0.029546857,-0.073093951,-0.059966803,-0.13687624,-0.360477775,0.019227702,0.398108453,-1.525672215,0.45499064
-0.920857787,-0.387675405,-0.041581117,0.029546857,-0.073093951,-0.059966803,-0.13687624,-0.360477775,0.019227702,0.398108453,-1.525672215,0.45499064
-0.920857787,-0.387675405,-0.041581117,0.029546857,-0.073093951,-0.059966803,-0.13687624,-0.360477775,0.019227702,0.398108453,-1.525672215,0.45499064
-0.920857787,-0.387675405,-0.041581117,0.029546857,-0.073093951,-0.059966803,-0.13687624,-0.360477775,0.019227702,0.398108453,-1.525672215,0.45499064
-0.920857787,-0.387675405,-0.041581117,0.029546857,-0.073093951,-0.059966803,-0.13687624,-0.360477775,0.019227702,0.398108453,-1.525672215,0.45499064
-0.920857787,-0.387675405,-0.041581117,0.029546857,-0.073093951,-0.059966803,-0.13687624,-0.360477775,0.019227702,0.398108453,-1.525672215,0.45499064
-0.920857787,-0.387675405,-0.041581117,0.029546857,-0.073093951,-0.059966803,-0.13687624,-0.360477775,0.019227702,0.398108453,-1.525672215,0.45499064
-0.920857787,-0.387675405,-0.041581117,0.029546857,-0.073093951,-0.059966803,-0.13687624,-0.360477775,0.019227702,0.398108453,-1.525672215,0.45499064
-0.920857787,-0.387675405,-0.041581117,0.029546857,-0.073093951,-0.059966803,-0.13687624,-0.360477775,0.019227702,0.398108453,-1.525672215,0.45499064
-0.920857787,-0.387675405,-0.041581117,0.029546857,-0.073093951,-0.059966803,-0.13687624,-0.360477775,0.019227702,0.398108453,-1.525672215,0.45499064
-0.920857787,-0.387675405,-0.041581117,0.029546857,-0.073093951,-0.059966803,-0.13687624,-0.360477775,0.019227702,0.398108453,-1.525672215,0.45499064
-0.920857787,-0.387675405,-0.041581117,0.029546857,-0.073093951,-0.059966803,-0.13687624,-0.360477775,0.019227702,0.398108453,-1.525672215,0.45499064
-0.919287741,-0.391722471,-0.038259428,-0.029991448,-0.161240578,-0.133173764,-0.695180774,-0.389226198,-0.190302566,0.402502918,-1.529201775,0.434452126
-0.919287741,-0.391722471,-0.038259428,-0.029991448,-0.161240578,-0.133173764,-0.695180774,-0.389226198,-0.190302566,0.402502918,-1.529201775,0.434452126
-0.919287741,-0.391722471,-0.038259428,-0.029991448,-0.161240578,-0.133173764,-0.695180774,-0.389226198,-0.190302566,0.402502918,-1.529201775,0.434452126
-0.919287741,-0.391722471,-0.038259428,-0.029991448,-0.161240578,-0.133173764,-0.695180774,-0.389226198,-0.190302566,0.402502918,-1.529201775,0.434452126
-0.919287741,-0.391722471,-0.038259428,-0.029991448,-0.161240578,-0.133173764,-0.695180774,-0.389226198,-0.190302566,0.402502918,-1.529201775,0.434452126
-0.919287741,-0.391722471,-0.038259428,-0.029991448,-0.161240578,-0.133173764,-0.695180774,-0.389226198,-0.190302566,0.402502918,-1.529201775,0.434452126
-0.919287741,-0.391722471,-0.038259428,-0.029991448,-0.161240578,-0.133173764,-0.695180774,-0.389226198,-0.190302566,0.402502918,-1.529201775,0.434452126
-0.919287741,-0.391722471,-0.038259428,-0.029991448,-0.161240578,-0.133173764,-0.695180774,-0.389226198,-0.190302566,0.402502918,-1.529201775,0.434452126
-0.919287741,-0.391722471,-0.038259428,-0.029991448,-0.161240578,-0.133173764,-0.695180774,-0.389226198,-0.190302566,0.402502918,-1.529201775,0.434452126
-0.919287741,-0.391722471,-0.038259428,-0.029991448,-0.161240578,-0.133173764,-0.695180774,-0.389226198,-0.190302566,0.402502918,-1.529201775,0.434452126
-0.919287741,-0.391722471,-0.038259428,-0.029991448,-0.161240578,-0.133173764,-0.695180774,-0.389226198,-0.190302566,0.402502918,-1.529201775,0.434452126
-0.919287741,-0.391722471,-0.038259428,-0.029991448,-0.161240578,-0.133173764,-0.695180774,-0.389226198,-0.190302566,0.402502918,-1.529201775,0.434452126
-0.912277222,-0.407387435,-0.042257883,-0.166182637,-0.301321894,-0.087244332,-0.814682245,-0.157629058,-0.592475891,0.419591513,-1.524508095,0.398999802
-0.912277222,-0.407387435,-0.042257883,-0.166182637,-0.301321894,-0.087244332,-0.814682245,-0.157629058,-0.592475891,0.419591513,-1.524508095,0.398999802
-0.912277222,-0.407387435,-0.042257883,-0.166182637,-0.301321894,-0.087244332,-0.814682245,-0.157629058,-0.592475891,0.419591513,-1.524508095,0.398999802
-0.912277222,-0.407387435,-0.042257883,-0.166182637,-0.301321894,-0.087244332,-0.814682245,-0.157629058,-0.592475891,0.419591513,-1.524508095,0.398999802
-0.912277222,-0.407387435,-0.042257883,-0.166182637,-0.301321894,-0.087244332,-0.814682245,-0.157629058,-0.592475891,0.419591513,-1.524508095,0.398999802
-0.912277222,-0.407387435,-0.042257883,-0.166182637,-0.301321894,-0.087244332,-0.814682245,-0.157629058,-0.592475891,0.419591513,-1.524508095,0.398999802
-0.912277222,-0.407387435,-0.042257883,-0.166182637,-0.301321894,-0.087244332,-0.814682245,-0.157629058,-0.592475891,0.419591513,-1.524508095,0.398999802
-0.912277222,-0.407387435,-0.042257883,-0.166182637,-0.301321894,-0.087244332,-0.814682245,-0.157629058,-0.592475891,0.419591513,-1.524508095,0.398999802
-0.912277222,-0.407387435,-0.042257883,-0.166182637,-0.301321894,-0.087244332,-0.814682245,-0.157629058,-0.592475891,0.419591513,-1.524508095,0.398999802
-0.912277222,-0.407387435,-0.042257883,-0.166182637,-0.301321894,-0.087244332,-0.814682245,-0.157629058,-0.592475891,0.419591513,-1.524508095,0.398999802
-0.912277222,-0.407387435,-0.042257883,-0.166182637,-0.301321894,-0.087244332,-0.814682245,-0.157629058,-0.592475891,0.419591513,-1.524508095,0.398999802
-0.912277222,-0.407387435,-0.042257883,-0.166182637,-0.301321894,-0.087244332,-0.814682245,-0.157629058,-0.592475891,0.419591513,-1.524508095,0.398999802
-0.912277222,-0.407387435,-0.042257883,-0.166182637,-0.301321894,-0.087244332,-0.814682245,-0.157629058,-0.592475891,0.419591513,-1.524508095,0.398999802
-0.912277222,-0.407387435,-0.042257883,-0.166182637,-0.301321894,-0.087244332,-0.814682245,-0.157629058,-0.592475891,0.419591513,-1.524508095,0.398999802
-0.912277222,-0.407387435,-0.042257883,-0.166182637,-0.301321894,-0.087244332,-0.814682245,-0.157629058,-0.592475891,0.419591513,-1.524508095,0.398999802
-0.912277222,-0.407387435,-0.042257883,-0.166182637,-0.301321894,-0.087244332,-0.814682245,-0.157629058,-0.592475891,0.419591513,-1.524508095,0.398999802
-0.912277222,-0.407387435,-0.042257883,-0.166182637,-0.301321894,-0.087244332,-0.814682245,-0.157629058,-0.592475891,0.419591513,-1.524508095,0.398999802
-0.912277222,-0.407387435,-0.042257883,-0.166182637,-0.301321894,-0.087244332,-0.814682245,-0.157629058,-0.592475891,0.419591513,-1.524508095,0.398999802
-0.912277222,-0.407387435,-0.042257883,-0.166182637,-0.301321894,-0.087244332,-0.814682245,-0.157629058,-0.592475891,0.419591513,-1.524508095,0.398999802
-0.893863797,-0.444033653,-0.061982006,-0.349757195,-0.37968117,-0.169952452,-1.313295364,0.196974292,-1.694286942,0.460095462,-1.501565476,0.348209965
-0.893863797,-0.444033653,-0.061982006,-0.349757195,-0.37968117,-0.169952452,-1.313295364,0.196974292,-1.694286942,0.460095462,-1.501565476,0.348209965
-0.893863797,-0.444033653,-0.061982006,-0.349757195,-0.37968117,-0.169952452,-1.313295364,0.196974292,-1.694286942,0.460095462,-1.501565476,0.348209965
-0.893863797,-0.444033653,-0.061982006,-0.349757195,-0.37968117,-0.169952452,-1.313295364,0.196974292,-1.694286942,0.460095462,-1.501565476,0.348209965
-0.893863797,-0.444033653,-0.061982006,-0.349757195,-0.37968117,-0.169952452,-1.313295364,0.196974292,-1.694286942,0.460095462,-1.501565476,0.348209965
-0.893863797,-0.444033653,-0.061982006,-0.349757195,-0.37968117,-0.169952452,-1.313295364,0.196974292,-1.694286942,0.460095462,-1.501565476,0.348209965
-0.893863797,-0.444033653,-0.061982006,-0.349757195,-0.37968117,-0.169952452,-1.313295364,0.196974292,-1.694286942,0.460095462,-1.501565476,0.348209965
-0.893863797,-0.444033653,-0.061982006,-0.349757195,-0.37968117,-0.169952452,-1.313295364,0.196974292,-1.694286942,0.460095462,-1.501565476,0.348209965
-0.893863797,-0.444033653,-0.061982006,-0.349757195,-0.37968117,-0.169952452,-1.313295364,0.196974292,-1.694286942,0.460095462,-1.501565476,0.348209965
-0.893863797,-0.444033653,-0.061982006,-0.349757195,-0.37968117,-0.169952452,-1.313295364,0.196974292,-1.694286942,0.460095462,-1.501565476,0.348209965
-0.893863797,-0.444033653,-0.061982006,-0.349757195,-0.37968117,-0.169952452,-1.313295364,0.196974292,-1.694286942,0.460095462,-1.501565476,0.348209965
-0.893863797,-0.444033653,-0.061982006,-0.349757195,-0.37968117,-0.169952452,-1.313295364,0.196974292,-1.694286942,0.460095462,-1.501565476,0.348209965
-0.893863797,-0.444033653,-0.061982006,-0.349757195,-0.37968117,-0.169952452,-1.313295364,0.196974292,-1.694286942,0.460095462,-1.501565476,0.348209965
-0.893863797,-0.444033653,-0.061982006,-0.349757195,-0.37968117,-0.169952452,-1.313295364,0.196974292,-1.694286942,0.460095462,-1.501565476,0.348209965
-0.893863797,-0.444033653,-0.061982006,-0.349757195,-0.37968117,-0.169952452,-1.313295364,0.196974292,-1.694286942,0.460095462,-1.501565476,0.348209965
-0.893863797,-0.444033653,-0.061982006,-0.349757195,-0.37968117,-0.169952452,-1.313295364,0.196974292,-1.694286942,0.460095462,-1.501565476,0.348209965
-0.893863797,-0.444033653,-0.061982006,-0.349757195,-0.37968117,-0.169952452,-1.313295364,0.196974292,-1.694286942,0.460095462,-1.501565476,0.348209965
-0.849649191,-0.518550694,-0.09592431,-0.317418456,-0.190829933,-0.035027504,-0.949731112,0.52034384,-2.715031385,0.545155068,-1.458373633,0.28368771
-0.849649191,-0.518550694,-0.09592431,-0.317418456,-0.190829933,-0.035027504,-0.949731112,0.52034384,-2.715031385,0.545155068,-1.458373633,0.28368771
-0.849649191,-0.518550694,-0.09592431,-0.317418456,-0.190829933,-0.035027504,-0.949731112,0.52034384,-2.715031385,0.545155068,-1.458373633,0.28368771
-0.849649191,-0.518550694,-0.09592431,-0.317418456,-0.190829933,-0.035027504,-0.949731112,0.52034384,-2.715031385,0.545155068,-1.458373633,0.28368771
-0.849649191,-0.518550694,-0.09592431,-0.317418456,-0.190829933,-0.035027504,-0.949731112,0.52034384,-2.715031385,0.545155068,-1.458373633,0.28368771
-0.849649191,-0.518550694,-0.09592431,-0.317418456,-0.190829933,-0.035027504,-0.949731112,0.52034384,-2.715031385,0.545155068,-1.458373633,0.28368771
-0.849649191,-0.518550694,-0.09592431,-0.317418456,-0.190829933,-0.035027504,-0.949731112,0.52034384,-2.715031385,0.545155068,-1.458373633,0.28368771
-0.849649191,-0.518550694,-0.09592431,-0.317418456,-0.190829933,-0.035027504,-0.949731112,0.52034384,-2.715031385,0.545155068,-1.458373633,0.28368771
-0.849649191,-0.518550694,-0.09592431,-0.317418456,-0.190829933,-0.035027504,-0.949731112,0.52034384,-2.715031385,0.545155068,-1.458373633,0.28368771
-0.849649191,-0.518550694,-0.09592431,-0.317418456,-0.190829933,-0.035027504,-0.949731112,0.52034384,-2.715031385,0.545155068,-1.458373633,0.28368771
-0.849649191,-0.518550694,-0.09592431,-0.317418456,-0.190829933,-0.035027504,-0.949731112,0.52034384,-2.715031385,0.545155068,-1.458373633,0.28368771
-0.849649191,-0.518550694,-0.09592431,-0.317418456,-0.190829933,-0.035027504,-0.949731112,0.52034384,-2.715031385,0.545155068,-1.458373633,0.28368771
-0.849649191,-0.518550694,-0.09592431,-0.317418456,-0.190829933,-0.035027504,-0.949731112,0.52034384,-2.715031385,0.545155068,-1.458373633,0.28368771
-0.849649191,-0.518550694,-0.09592431,-0.317418456,-0.190829933,-0.035027504,-0.949731112,0.52034384,-2.715031385,0.545155068,-1.458373633,0.28368771
-0.849649191,-0.518550694,-0.09592431,-0.317418456,-0.190829933,-0.035027504,-0.949731112,0.52034384,-2.715031385,0.545155068,-1.458373633,0.28368771
-0.849649191,-0.518550694,-0.09592431,-0.317418456,-0.190829933,-0.035027504,-0.949731112,0.52034384,-2.715031385,0.545155068,-1.458373633,0.28368771
-0.849649191,-0.518550694,-0.09592431,-0.317418456,-0.190829933,-0.035027504,-0.949731112,0.52034384,-2.715031385,0.545155068,-1.458373633,0.28368771
-0.849649191,-0.518550694,-0.09592431,-0.317418456,-0.190829933,-0.035027504,-0.949731112,0.52034384,-2.715031385,0.545155068,-1.458373633,0.28368771
-0.849649191,-0.518550694,-0.09592431,-0.317418456,-0.190829933,-0.035027504,-0.949731112,0.52034384,-2.715031385,0.545155068,-1.458373633,0.28368771
-0.77814424,-0.612747014,-0.137959227,-0.336982548,-0.297591805,-0.01302731,-0.778991282,0.857519805,-3.293577909,0.659531907,-1.395327051,0.223027615
-0.77814424,-0.612747014,-0.137959227,-0.336982548,-0.297591805,-0.01302731,-0.778991282,0.857519805,-3.293577909,0.659531907,-1.395327051,0.223027615
-0.77814424,-0.612747014,-0.137959227,-0.336982548,-0.297591805,-0.01302731,-0.778991282,0.857519805,-3.293577909,0.659531907,-1.395327051,0.223027615
-0.77814424,-0.612747014,-0.137959227,-0.336982548,-0.297591805,-0.01302731,-0.778991282,0.857519805,-3.293577909,0.659531907,-1.395327051,0.223027615
-0.77814424,-0.612747014,-0.137959227,-0.336982548,-0.297591805,-0.01302731,-0.778991282,0.857519805,-3.293577909,0.659531907,-1.395327051,0.223027615
-0.77814424,-0.612747014,-0.137959227,-0.336982548,-0.297591805,-0.01302731,-0.778991282,0.857519805,-3.293577909,0.659531907,-1.395327051,0.223027615
-0.77814424,-0.612747014,-0.137959227,-0.336982548,-0.297591805,-0.01302731,-0.778991282,0.857519805,-3.293577909,0.659531907,-1.395327051,0.223027615
-0.77814424,-0.612747014,-0.137959227,-0.336982548,-0.297591805,-0.01302731,-0.778991282,0.857519805,-3.293577909,0.659531907,-1.395327051,0.223027615
-0.77814424,-0.612747014,-0.137959227,-0.336982548,-0.297591805,-0.01302731,-0.778991282,0.857519805,-3.293577909,0.659531907,-1.395327051,0.223027615
0.74755913,-0.574023664,-0.334144175,-0.29698348,-0.004588723,0.059668005,-0.217131332,-1.437960625,-0.849421918,0.611411289,1.150456445,-3.13032683
0.74755913,-0.574023664,-0.334144175,-0.29698348,-0.004588723,0.059668005,-0.217131332,-1.437960625,-0.849421918,0.611411289,1.150456445,-3.13032683
0.74755913,-0.574023664,-0.334144175,-0.29698348,-0.004588723,0.059668005,-0.217131332,-1.437960625,-0.849421918,0.611411289,1.150456445,-3.13032683
0.745687306,-0.54817754,-0.378750294,-0.242987573,0.084219635,-0.041309774,0.001701877,-0.902134597,-0.542226017,0.580183671,1.100831962,-3.130699387
0.745687306,-0.54817754,-0.378750294,-0.242987573,0.084219635,-0.041309774,0.001701877,-0.902134597,-0.542226017,0.580183671,1.100831962,-3.130699387
0.745687306,-0.54817754,-0.378750294,-0.242987573,0.084219635,-0.041309774,0.001701877,-0.902134597,-0.542226017,0.580183671,1.100831962,-3.130699387
0.745687306,-0.54817754,-0.378750294,-0.242987573,0.084219635,-0.041309774,0.001701877,-0.902134597,-0.542226017,0.580183671,1.100831962,-3.130699387
0.745687306,-0.54817754,-0.378750294,-0.242987573,0.084219635,-0.041309774,0.001701877,-0.902134597,-0.542226017,0.580183671,1.100831962,-3.130699387
0.745687306,-0.54817754,-0.378750294,-0.242987573,0.084219635,-0.041309774,0.001701877,-0.902134597,-0.542226017,0.580183671,1.100831962,-3.130699387
0.745687306,-0.54817754,-0.378750294,-0.242987573,0.084219635,-0.041309774,0.001701877,-0.902134597,-0.542226017,0.580183671,1.100831962,-3.130699387
0.745687306,-0.54817754,-0.378750294,-0.242987573,0.084219635,-0.041309774,0.001701877,-0.902134597,-0.542226017,0.580183671,1.100831962,-3.130699387
0.745687306,-0.54817754,-0.378750294,-0.242987573,0.084219635,-0.041309774,0.001701877,-0.902134597,-0.542226017,0.580183671,1.100831962,-3.130699387
0.745687306,-0.54817754,-0.378750294,-0.242987573,0.084219635,-0.041309774,0.001701877,-0.902134597,-0.542226017,0.580183671,1.100831962,-3.130699387
0.745687306,-0.54817754,-0.378750294,-0.242987573,0.084219635,-0.041309774,0.001701877,-0.902134597,-0.542226017,0.580183671,1.100831962,-3.130699387
0.745687306,-0.54817754,-0.378750294,-0.242987573,0.084219635,-0.041309774,0.001701877,-0.902134597,-0.542226017,0.580183671,1.100831962,-3.130699387
0.75070256,-0.541136384,-0.378968567,-0.105424762,0.087844312,-0.018065989,0.796201348,-0.254658163,-0.441583693,0.571787859,1.103301325,3.113149356
0.75070256,-0.541136384,-0.378968567,-0.105424762,0.087844312,-0.018065989,0.796201348,-0.254658163,-0.441583693,0.571787859,1.103301325,3.113149356
0.75070256,-0.541136384,-0.378968567,-0.105424762,0.087844312,-0.018065989,0.796201348,-0.254658163,-0.441583693,0.571787859,1.103301325,3.113149356
0.75070256,-0.541136384,-0.378968567,-0.105424762,0.087844312,-0.018065989,0.796201348,-0.254658163,-0.441583693,0.571787859,1.103301325,3.113149356
0.75070256,-0.541136384,-0.378968567,-0.105424762,0.087844312,-0.018065989,0.796201348,-0.254658163,-0.441583693,0.571787859,1.103301325,3.113149356
0.75070256,-0.541136384,-0.378968567,-0.105424762,0.087844312,-0.018065989,0.796201348,-0.254658163,-0.441583693,0.571787859,1.103301325,3.113149356
0.75070256,-0.541136384,-0.378968567,-0.105424762,0.087844312,-0.018065989,0.796201348,-0.254658163,-0.441583693,0.571787859,1.103301325,3.113149356
0.75070256,-0.541136384,-0.378968567,-0.105424762,0.087844312,-0.018065989,0.796201348,-0.254658163,-0.441583693,0.571787859,1.103301325,3.113149356
0.75070256,-0.541136384,-0.378968567,-0.105424762,0.087844312,-0.018065989,0.796201348,-0.254658163,-0.441583693,0.571787859,1.103301325,3.113149356
0.75070256,-0.541136384,-0.378968567,-0.105424762,0.087844312,-0.018065989,0.796201348,-0.254658163,-0.441583693,0.571787859,1.103301325,3.113149356
0.75070256,-0.541136384,-0.378968567,-0.105424762,0.087844312,-0.018065989,0.796201348,-0.254658163,-0.441583693,0.571787859,1.103301325,3.113149356
0.75070256,-0.541136384,-0.378968567,-0.105424762,0.087844312,-0.018065989,0.796201348,-0.254658163,-0.441583693,0.571787859,1.103301325,3.113149356
0.754396439,-0.537445843,-0.376879543,-0.053454638,0.028764486,-0.111204386,0.568064392,-0.378873467,-0.410499692,0.567405406,1.107486731,3.074882821
0.754396439,-0.537445843,-0.376879543,-0.053454638,0.028764486,-0.111204386,0.568064392,-0.378873467,-0.410499692,0.567405406,1.107486731,3.074882821
0.754396439,-0.537445843,-0.376879543,-0.053454638,0.028764486,-0.111204386,0.568064392,-0.378873467,-0.410499692,0.567405406,1.107486731,3.074882821
0.754396439,-0.537445843,-0.376879543,-0.053454638,0.028764486,-0.111204386,0.568064392,-0.378873467,-0.410499692,0.567405406,1.107486731,3.074882821
0.754396439,-0.537445843,-0.376879543,-0.053454638,0.028764486,-0.111204386,0.568064392,-0.378873467,-0.410499692,0.567405406,1.107486731,3.074882821
0.754396439,-0.537445843,-0.376879543,-0.053454638,0.028764486,-0.111204386,0.568064392,-0.378873467,-0.410499692,0.567405406,1.107486731,3.074882821
0.754396439,-0.537445843,-0.376879543,-0.053454638,0.028764486,-0.111204386,0.568064392,-0.378873467,-0.410499692,0.567405406,1.107486731,3.074882821
0.754396439,-0.537445843,-0.376879543,-0.053454638,0.028764486,-0.111204386,0.568064392,-0.378873467,-0.410499692,0.567405406,1.107486731,3.074882821
0.754396439,-0.537445843,-0.376879543,-0.053454638,0.028764486,-0.111204386,0.568064392,-0.378873467,-0.410499692,0.567405406,1.107486731,3.074882821
0.759371936,-0.534208477,-0.37145099,-0.04965657,0.030532062,-0.073557496,0.428134739,-0.092210129,-0.298835605,0.56357112,1.115861843,3.046775014
0.759371936,-0.534208477,-0.37145099,-0.04965657,0.030532062,-0.073557496,0.428134739,-0.092210129,-0.298835605,0.56357112,1.115861843,3.046775014
0.759371936,-0.534208477,-0.37145099,-0.04965657,0.030532062,-0.073557496,0.428134739,-0.092210129,-0.298835605,0.56357112,1.115861843,3.046775014
0.759371936,-0.534208477,-0.37145099,-0.04965657,0.030532062,-0.073557496,0.428134739,-0.092210129,-0.298835605,0.56357112,1.115861843,3.046775014
0.759371936,-0.534208477,-0.37145099,-0.04965657,0.030532062,-0.073557496,0.428134739,-0.092210129,-0.298835605,0.56357112,1.115861843,3.046775014
0.759371936,-0.534208477,-0.37145099,-0.04965657,0.030532062,-0.073557496,0.428134739,-0.092210129,-0.298835605,0.56357112,1.115861843,3.046775014
0.762539804,-0.531838238,-0.368349224,-0.116865635,-0.038488507,0.027741373,0.012096034,-0.012708097,-0.121128455,0.56076979,1.120795781,3.030549623
0.762539804,-0.531838238,-0.368349224,-0.116865635,-0.038488507,0.027741373,0.012096034,-0.012708097,-0.121128455,0.56076979,1.120795781,3.030549623
0.762539804,-0.531838238,-0.368349224,-0.116865635,-0.038488507,0.027741373,0.012096034,-0.012708097,-0.121128455,0.56076979,1.120795781,3.030549623
0.762539804,-0.531838238,-0.368349224,-0.116865635,-0.038488507,0.027741373,0.012096034,-0.012708097,-0.121128455,0.56076979,1.120795781,3.030549623
0.762539804,-0.531838238,-0.368349224,-0.116865635,-0.038488507,0.027741373,0.012096034,-0.012708097,-0.121128455,0.56076979,1.120795781,3.030549623
0.762539804,-0.531838238,-0.368349224,-0.116865635,-0.038488507,0.027741373,0.012096034,-0.012708097,-0.121128455,0.56076979,1.120795781,3.030549623
0.762539804,-0.531838238,-0.368349224,-0.116865635,-0.038488507,0.027741373,0.012096034,-0.012708097,-0.121128455,0.56076979,1.120795781,3.030549623
0.762539804,-0.531838238,-0.368349224,-0.116865635,-0.038488507,0.027741373,0.012096034,-0.012708097,-0.121128455,0.56076979,1.120795781,3.030549623
0.762539804,-0.531838238,-0.368349224,-0.116865635,-0.038488507,0.027741373,0.012096034,-0.012708097,-0.121128455,0.56076979,1.120795781,3.030549623
0.762539804,-0.531838238,-0.368349224,-0.116865635,-0.038488507,0.027741373,0.012096034,-0.012708097,-0.121128455,0.56076979,1.120795781,3.030549623
0.762539804,-0.531838238,-0.368349224,-0.116865635,-0.038488507,0.027741373,0.012096034,-0.012708097,-0.121128455,0.56076979,1.120795781,3.030549623
0.762539804,-0.531838238,-0.368349224,-0.116865635,-0.038488507,0.027741373,0.012096034,-0.012708097,-0.121128455,0.56076979,1.120795781,3.030549623
0.762539804,-0.531838238,-0.368349224,-0.116865635,-0.038488507,0.027741373,0.012096034,-0.012708097,-0.121128455,0.56076979,1.120795781,3.030549623
0.762539804,-0.531838238,-0.368349224,-0.116865635,-0.038488507,0.027741373,0.012096034,-0.012708097,-0.121128455,0.56076979,1.120795781,3.030549623
0.762539804,-0.531838238,-0.368349224,-0.116865635,-0.038488507,0.027741373,0.012096034,-0.012708097,-0.121128455,0.56076979,1.120795781,3.030549623
0.762539804,-0.531838238,-0.368349224,-0.116865635,-0.038488507,0.027741373,0.012096034,-0.012708097,-0.121128455,0.56076979,1.120795781,3.030549623
0.762539804,-0.531838238,-0.368349224,-0.116865635,-0.038488507,0.027741373,0.012096034,-0.012708097,-0.121128455,0.56076979,1.120795781,3.030549623
0.762539804,-0.531838238,-0.368349224,-0.116865635,-0.038488507,0.027741373,0.012096034,-0.012708097,-0.121128455,0.56076979,1.120795781,3.030549623
0.762335777,-0.52784276,-0.374468118,0.001533031,0.068096459,-0.062621057,-0.297945172,-0.122423671,0.012940671,0.556058685,1.114204177,3.037843613
0.762335777,-0.52784276,-0.374468118,0.001533031,0.068096459,-0.062621057,-0.297945172,-0.122423671,0.012940671,0.556058685,1.114204177,3.037843613
0.762335777,-0.52784276,-0.374468118,0.001533031,0.068096459,-0.062621057,-0.297945172,-0.122423671,0.012940671,0.556058685,1.114204177,3.037843613
0.762335777,-0.52784276,-0.374468118,0.001533031,0.068096459,-0.062621057,-0.297945172,-0.122423671,0.012940671,0.556058685,1.114204177,3.037843613
0.762335777,-0.52784276,-0.374468118,0.001533031,0.068096459,-0.062621057,-0.297945172,-0.122423671,0.012940671,0.556058685,1.114204177,3.037843613
0.762335777,-0.52784276,-0.374468118,0.001533031,0.068096459,-0.062621057,-0.297945172,-0.122423671,0.012940671,0.556058685,1.114204177,3.037843613
0.757956445,-0.526960731,-0.38446629,-0.117790818,-0.061859488,0.139408827,-0.557211101,-0.048153974,0.256783307,0.555020538,1.101373032,3.055180243
0.757956445,-0.526960731,-0.38446629,-0.117790818,-0.061859488,0.139408827,-0.557211101,-0.048153974,0.256783307,0.555020538,1.101373032,3.055180243
0.757956445,-0.526960731,-0.38446629,-0.117790818,-0.061859488,0.139408827,-0.557211101,-0.048153974,0.256783307,0.555020538,1.101373032,3.055180243
0.757956445,-0.526960731,-0.38446629,-0.117790818,-0.061859488,0.139408827,-0.557211101,-0.048153974,0.256783307,0.555020538,1.101373032,3.055180243
0.757956445,-0.526960731,-0.38446629,-0.117790818,-0.061859488,0.139408827,-0.557211101,-0.048153974,0.256783307,0.555020538,1.101373032,3.055180243
0.757956445,-0.526960731,-0.38446629,-0.117790818,-0.061859488,0.139408827,-0.557211101,-0.048153974,0.256783307,0.555020538,1.101373032,3.055180243
0.757956445,-0.526960731,-0.38446629,-0.117790818,-0.061859488,0.139408827,-0.557211101,-0.048153974,0.256783307,0.555020538,1.101373032,3.055180243
0.757956445,-0.526960731,-0.38446629,-0.117790818,-0.061859488,0.139408827,-0.557211101,-0.048153974,0.256783307,0.555020538,1.101373032,3.055180243
0.757956445,-0.526960731,-0.38446629,-0.117790818,-0.061859488,0.139408827,-0.557211101,-0.048153974,0.256783307,0.555020538,1.101373032,3.055180243
0.757956445,-0.526960731,-0.38446629,-0.117790818,-0.061859488,0.139408827,-0.557211101,-0.048153974,0.256783307,0.555020538,1.101373032,3.055180243
0.749355614,-0.525630772,-0.402713984,-0.108319938,-0.010348558,0.05255425,-1.046061873,0.024130054,0.42731005,0.553456375,1.077667637,3.099496923
0.749355614,-0.525630772,-0.402713984,-0.108319938,-0.010348558,0.05255425,-1.046061873,0.024130054,0.42731005,0.553456375,1.077667637,3.099496923
0.749355614,-0.525630772,-0.402713984,-0.108319938,-0.010348558,0.05255425,-1.046061873,0.024130054,0.42731005,0.553456375,1.077667637,3.099496923
0.749355614,-0.525630772,-0.402713984,-0.108319938,-0.010348558,0.05255425,-1.046061873,0.024130054,0.42731005,0.553456375,1.077667637,3.099496923
0.749355614,-0.525630772,-0.402713984,-0.108319938,-0.010348558,0.05255425,-1.046061873,0.024130054,0.42731005,0.553456375,1.077667637,3.099496923
0.749355614,-0.525630772,-0.402713984,-0.108319938,-0.010348558,0.05255425,-1.046061873,0.024130054,0.42731005,0.553456375,1.077667637,3.099496923
0.749355614,-0.525630772,-0.402713984,-0.108319938,-0.010348558,0.05255425,-1.046061873,0.024130054,0.42731005,0.553456375,1.077667637,3.099496923
0.749355614,-0.525630772,-0.402713984,-0.108319938,-0.010348558,0.05255425,-1.046061873,0.024130054,0.42731005,0.553456375,1.077667637,3.099496923
0.749355614,-0.525630772,-0.402713984,-0.108319938,-0.010348558,0.05255425,-1.046061873,0.024130054,0.42731005,0.553456375,1.077667637,3.099496923
0.749355614,-0.525630772,-0.402713984,-0.108319938,-0.010348558,0.05255425,-1.046061873,0.024130054,0.42731005,0.553456375,1.077667637,3.099496923
0.749355614,-0.525630772,-0.402713984,-0.108319938,-0.010348558,0.05255425,-1.046061873,0.024130054,0.42731005,0.553456375,1.077667637,3.099496923
0.749355614,-0.525630772,-0.402713984,-0.108319938,-0.010348558,0.05255425,-1.046061873,0.024130054,0.42731005,0.553456375,1.077667637,3.099496923
0.739246368,-0.52344954,-0.423692733,-0.04533875,-0.082994998,-0.022352993,-0.930747569,-0.020700231,0.493856162,0.550894419,1.05035992,-3.133314706
0.739246368,-0.52344954,-0.423692733,-0.04533875,-0.082994998,-0.022352993,-0.930747569,-0.020700231,0.493856162,0.550894419,1.05035992,-3.133314706
0.739246368,-0.52344954,-0.423692733,-0.04533875,-0.082994998,-0.022352993,-0.930747569,-0.020700231,0.493856162,0.550894419,1.05035992,-3.133314706
0.739246368,-0.52344954,-0.423692733,-0.04533875,-0.082994998,-0.022352993,-0.930747569,-0.020700231,0.493856162,0.550894419,1.05035992,-3.133314706
0.739246368,-0.52344954,-0.423692733,-0.04533875,-0.082994998,-0.022352993,-0.930747569,-0.020700231,0.493856162,0.550894419,1.05035992,-3.133314706
0.739246368,-0.52344954,-0.423692733,-0.04533875,-0.082994998,-0.022352993,-0.930747569,-0.020700231,0.493856162,0.550894419,1.05035992,-3.133314706
0.739246368,-0.52344954,-0.423692733,-0.04533875,-0.082994998,-0.022352993,-0.930747569,-0.020700231,0.493856162,0.550894419,1.05035992,-3.133314706
0.739246368,-0.52344954,-0.423692733,-0.04533875,-0.082994998,-0.022352993,-0.930747569,-0.020700231,0.493856162,0.550894419,1.05035992,-3.133314706
0.739246368,-0.52344954,-0.423692733,-0.04533875,-0.082994998,-0.022352993,-0.930747569,-0.020700231,0.493856162,0.550894419,1.05035992,-3.133314706
0.734648526,-0.516259253,-0.440190762,-0.037338495,-0.197332263,0.105305076,-1.619372964,0.573797047,0.36796093,0.542477351,1.030975932,-3.074448321
0.734648526,-0.516259253,-0.440190762,-0.037338495,-0.197332263,0.105305076,-1.619372964,0.573797047,0.36796093,0.542477351,1.030975932,-3.074448321
0.734648526,-0.516259253,-0.440190762,-0.037338495,-0.197332263,0.105305076,-1.619372964,0.573797047,0.36796093,0.542477351,1.030975932,-3.074448321
0.734648526,-0.516259253,-0.440190762,-0.037338495,-0.197332263,0.105305076,-1.619372964,0.573797047,0.36796093,0.542477351,1.030975932,-3.074448321
0.734648526,-0.516259253,-0.440190762,-0.037338495,-0.197332263,0.105305076,-1.619372964,0.573797047,0.36796093,0.542477351,1.030975932,-3.074448321
0.734648526,-0.516259253,-0.440190762,-0.037338495,-0.197332263,0.105305076,-1.619372964,0.573797047,0.36796093,0.542477351,1.030975932,-3.074448321
0.734648526,-0.516259253,-0.440190762,-0.037338495,-0.197332263,0.105305076,-1.619372964,0.573797047,0.36796093,0.542477351,1.030975932,-3.074448321
0.734648526,-0.516259253,-0.440190762,-0.037338495,-0.197332263,0.105305076,-1.619372964,0.573797047,0.36796093,0.542477351,1.030975932,-3.074448321
0.734648526,-0.516259253,-0.440190762,-0.037338495,-0.197332263,0.105305076,-1.619372964,0.573797047,0.36796093,0.542477351,1.030975932,-3.074448321
0.734648526,-0.516259253,-0.440190762,-0.037338495,-0.197332263,0.105305076,-1.619372964,0.573797047,0.36796093,0.542477351,1.030975932,-3.074448321
0.734648526,-0.516259253,-0.440190762,-0.037338495,-0.197332263,0.105305076,-1.619372964,0.573797047,0.36796093,0.542477351,1.030975932,-3.074448321
0.734648526,-0.516259253,-0.440190762,-0.037338495,-0.197332263,0.105305076,-1.619372964,0.573797047,0.36796093,0.542477351,1.030975932,-3.074448321
0.734501421,-0.490342259,-0.469118685,0.129327953,-0.02787593,0.027803183,-2.022218227,0.064405181,0.274236947,0.512482414,1.002413048,-2.993327485
0.734501421,-0.490342259,-0.469118685,0.129327953,-0.02787593,0.027803183,-2.022218227,0.064405181,0.274236947,0.512482414,1.002413048,-2.993327485
0.734501421,-0.490342259,-0.469118685,0.129327953,-0.02787593,0.027803183,-2.022218227,0.064405181,0.274236947,0.512482414,1.002413048,-2.993327485
0.734501421,-0.490342259,-0.469118685,0.129327953,-0.02787593,0.027803183,-2.022218227,0.064405181,0.274236947,0.512482414,1.002413048,-2.993327485
0.734501421,-0.490342259,-0.469118685,0.129327953,-0.02787593,0.027803183,-2.022218227,0.064405181,0.274236947,0.512482414,1.002413048,-2.993327485
0.734501421,-0.490342259,-0.469118685,0.129327953,-0.02787593,0.027803183,-2.022218227,0.064405181,0.274236947,0.512482414,1.002413048,-2.993327485
0.734501421,-0.490342259,-0.469118685,0.129327953,-0.02787593,0.027803183,-2.022218227,0.064405181,0.274236947,0.512482414,1.002413048,-2.993327485
0.734501421,-0.490342259,-0.469118685,0.129327953,-0.02787593,0.027803183,-2.022218227,0.064405181,0.274236947,0.512482414,1.002413048,-2.993327485
0.734501421,-0.490342259,-0.469118685,0.129327953,-0.02787593,0.027803183,-2.022218227,0.064405181,0.274236947,0.512482414,1.002413048,-2.993327485
0.734501421,-0.490342259,-0.469118685,0.129327953,-0.02787593,0.027803183,-2.022218227,0.064405181,0.274236947,0.512482414,1.002413048,-2.993327485
0.734501421,-0.490342259,-0.469118685,0.129327953,-0.02787593,0.027803183,-2.022218227,0.064405181,0.274236947,0.512482414,1.002413048,-2.993327485
0.734501421,-0.490342259,-0.469118685,0.129327953,-0.02787593,0.027803183,-2.022218227,0.064405181,0.274236947,0.512482414,1.002413048,-2.993327485
0.734501421,-0.490342259,-0.469118685,0.129327953,-0.02787593,0.027803183,-2.022218227,0.064405181,0.274236947,0.512482414,1.002413048,-2.993327485
0.734501421,-0.490342259,-0.469118685,0.129327953,-0.02787593,0.027803183,-2.022218227,0.064405181,0.274236947,0.512482414,1.002413048,-2.993327485
0.734501421,-0.490342259,-0.469118685,0.129327953,-0.02787593,0.027803183,-2.022218227,0.064405181,0.274236947,0.512482414,1.002413048,-2.993327485
0.734501421,-0.490342259,-0.469118685,0.129327953,-0.02787593,0.027803183,-2.022218227,0.064405181,0.274236947,0.512482414,1.002413048,-2.993327485
0.731132805,-0.462345034,-0.501679182,-0.070092916,0.063710034,0.047134161,-1.66369319,0.247102767,0.254853815,0.480638054,0.969414752,-2.918672375
0.731132805,-0.462345034,-0.501679182,-0.070092916,0.063710034,0.047134161,-1.66369319,0.247102767,0.254853815,0.480638054,0.969414752,-2.918672375
0.731132805,-0.462345034,-0.501679182,-0.070092916,0.063710034,0.047134161,-1.66369319,0.247102767,0.254853815,0.480638054,0.969414752,-2.918672375
0.731132805,-0.462345034,-0.501679182,-0.070092916,0.063710034,0.047134161,-1.66369319,0.247102767,0.254853815,0.480638054,0.969414752,-2.918672375
0.731132805,-0.462345034,-0.501679182,-0.070092916,0.063710034,0.047134161,-1.66369319,0.247102767,0.254853815,0.480638054,0.969414752,-2.918672375
0.731468916,-0.433883339,-0.526021421,0.068166554,-0.097167492,0.108814716,-2.06106019,0.147836953,0.333118379,0.448798498,0.947346348,-2.847555098
0.731468916,-0.433883339,-0.526021421,0.068166554,-0.097167492,0.108814716,-2.06106019,0.147836953,0.333118379,0.448798498,0.947346348,-2.847555098
0.731468916,-0.433883339,-0.526021421,0.068166554,-0.097167492,0.108814716,-2.06106019,0.147836953,0.333118379,0.448798498,0.947346348,-2.847555098
0.731468916,-0.433883339,-0.526021421,0.068166554,-0.097167492,0.108814716,-2.06106019,0.147836953,0.333118379,0.448798498,0.947346348,-2.847555098
0.731468916,-0.433883339,-0.526021421,0.068166554,-0.097167492,0.108814716,-2.06106019,0.147836953,0.333118379,0.448798498,0.947346348,-2.847555098
0.731468916,-0.433883339,-0.526021421,0.068166554,-0.097167492,0.108814716,-2.06106019,0.147836953,0.333118379,0.448798498,0.947346348,-2.847555098
0.729412854,-0.395843744,-0.557911098,-0.078443766,-0.006194055,0.00439769,-2.132126331,0.311077237,0.311332971,0.406986455,0.917841746,-2.764361318
0.729412854,-0.395843744,-0.557911098,-0.078443766,-0.006194055,0.00439769,-2.132126331,0.311077237,0.311332971,0.406986455,0.917841746,-2.764361318
0.729412854,-0.395843744,-0.557911098,-0.078443766,-0.006194055,0.00439769,-2.132126331,0.311077237,0.311332971,0.406986455,0.917841746,-2.764361318
0.729412854,-0.395843744,-0.557911098,-0.078443766,-0.006194055,0.00439769,-2.132126331,0.311077237,0.311332971,0.406986455,0.917841746,-2.764361318
0.729412854,-0.395843744,-0.557911098,-0.078443766,-0.006194055,0.00439769,-2.132126331,0.311077237,0.311332971,0.406986455,0.917841746,-2.764361318
0.729412854,-0.395843744,-0.557911098,-0.078443766,-0.006194055,0.00439769,-2.132126331,0.311077237,0.311332971,0.406986455,0.917841746,-2.764361318
0.729412854,-0.395843744,-0.557911098,-0.078443766,-0.006194055,0.00439769,-2.132126331,0.311077237,0.311332971,0.406986455,0.917841746,-2.764361318
0.729412854,-0.395843744,-0.557911098,-0.078443766,-0.006194055,0.00439769,-2.132126331,0.311077237,0.311332971,0.406986455,0.917841746,-2.764361318
0.729412854,-0.395843744,-0.557911098,-0.078443766,-0.006194055,0.00439769,-2.132126331,0.311077237,0.311332971,0.406986455,0.917841746,-2.764361318
0.729412854,-0.395843744,-0.557911098,-0.078443766,-0.006194055,0.00439769,-2.132126331,0.311077237,0.311332971,0.406986455,0.917841746,-2.764361318
0.729412854,-0.395843744,-0.557911098,-0.078443766,-0.006194055,0.00439769,-2.132126331,0.311077237,0.311332971,0.406986455,0.917841746,-2.764361318
0.729412854,-0.395843744,-0.557911098,-0.078443766,-0.006194055,0.00439769,-2.132126331,0.311077237,0.311332971,0.406986455,0.917841746,-2.764361318
0.729412854,-0.395843744,-0.557911098,-0.078443766,-0.006194055,0.00439769,-2.132126331,0.311077237,0.311332971,0.406986455,0.917841746,-2.764361318
0.729412854,-0.395843744,-0.557911098,-0.078443766,-0.006194055,0.00439769,-2.132126331,0.311077237,0.311332971,0.406986455,0.917841746,-2.764361318
0.729412854,-0.395843744,-0.557911098,-0.078443766,-0.006194055,0.00439769,-2.132126331,0.311077237,0.311332971,0.406986455,0.917841746,-2.764361318
0.736787081,-0.358911127,-0.572998881,0.016385257,-0.001287073,-0.00038147,-1.680113077,0.362780631,0.176725715,0.367101044,0.909801972,-2.690588462
0.736787081,-0.358911127,-0.572998881,0.016385257,-0.001287073,-0.00038147,-1.680113077,0.362780631,0.176725715,0.367101044,0.909801972,-2.690588462
0.736787081,-0.358911127,-0.572998881,0.016385257,-0.001287073,-0.00038147,-1.680113077,0.362780631,0.176725715,0.367101044,0.909801972,-2.690588462
0.736787081,-0.358911127,-0.572998881,0.016385257,-0.001287073,-0.00038147,-1.680113077,0.362780631,0.176725715,0.367101044,0.909801972,-2.690588462
0.736787081,-0.358911127,-0.572998881,0.016385257,-0.001287073,-0.00038147,-1.680113077,0.362780631,0.176725715,0.367101044,0.909801972,-2.690588462
0.736787081,-0.358911127,-0.572998881,0.016385257,-0.001287073,-0.00038147,-1.680113077,0.362780631,0.176725715,0.367101044,0.909801972,-2.690588462
0.735413432,-0.337835014,-0.587396562,-0.032198429,0.04851383,0.042168617,-1.344189525,0.101506934,0.50585264,0.34461573,0.896830445,-2.634072396
0.735413432,-0.337835014,-0.587396562,-0.032198429,0.04851383,0.042168617,-1.344189525,0.101506934,0.50585264,0.34461573,0.896830445,-2.634072396
0.735413432,-0.337835014,-0.587396562,-0.032198429,0.04851383,0.042168617,-1.344189525,0.101506934,0.50585264,0.34461573,0.896830445,-2.634072396
0.735413432,-0.337835014,-0.587396562,-0.032198429,0.04851383,0.042168617,-1.344189525,0.101506934,0.50585264,0.34461573,0.896830445,-2.634072396
0.735413432,-0.337835014,-0.587396562,-0.032198429,0.04851383,0.042168617,-1.344189525,0.101506934,0.50585264,0.34461573,0.896830445,-2.634072396
0.735413432,-0.337835014,-0.587396562,-0.032198429,0.04851383,0.042168617,-1.344189525,0.101506934,0.50585264,0.34461573,0.896830445,-2.634072396
0.735413432,-0.337835014,-0.587396562,-0.032198429,0.04851383,0.042168617,-1.344189525,0.101506934,0.50585264,0.34461573,0.896830445,-2.634072396
0.735413432,-0.337835014,-0.587396562,-0.032198429,0.04851383,0.042168617,-1.344189525,0.101506934,0.50585264,0.34461573,0.896830445,-2.634072396
0.735413432,-0.337835014,-0.587396562,-0.032198429,0.04851383,0.042168617,-1.344189525,0.101506934,0.50585264,0.34461573,0.896830445,-2.634072396
0.735413432,-0.337835014,-0.587396562,-0.032198429,0.04851383,0.042168617,-1.344189525,0.101506934,0.50585264,0.34461573,0.896830445,-2.634072396
0.735413432,-0.337835014,-0.587396562,-0.032198429,0.04851383,0.042168617,-1.344189525,0.101506934,0.50585264,0.34461573,0.896830445,-2.634072396
0.735413432,-0.337835014,-0.587396562,-0.032198429,0.04851383,0.042168617,-1.344189525,0.101506934,0.50585264,0.34461573,0.896830445,-2.634072396
0.735413432,-0.337835014,-0.587396562,-0.032198429,0.04851383,0.042168617,-1.344189525,0.101506934,0.50585264,0.34461573,0.896830445,-2.634072396
0.735413432,-0.337835014,-0.587396562,-0.032198429,0.04851383,0.042168617,-1.344189525,0.101506934,0.50585264,0.34461573,0.896830445,-2.634072396
0.735075295,-0.315362871,-0.60017544,-0.083862424,-0.070973665,0.100937486,-1.659811974,0.39088285,0.506403506,0.320839007,0.886086101,-2.567576759
0.735075295,-0.315362871,-0.60017544,-0.083862424,-0.070973665,0.100937486,-1.659811974,0.39088285,0.506403506,0.320839007,0.886086101,-2.567576759
0.735075295,-0.315362871,-0.60017544,-0.083862424,-0.070973665,0.100937486,-1.659811974,0.39088285,0.506403506,0.320839007,0.886086101,-2.567576759
0.735075295,-0.315362871,-0.60017544,-0.083862424,-0.070973665,0.100937486,-1.659811974,0.39088285,0.506403506,0.320839007,0.886086101,-2.567576759
0.735075295,-0.315362871,-0.60017544,-0.083862424,-0.070973665,0.100937486,-1.659811974,0.39088285,0.506403506,0.320839007,0.886086101,-2.567576759
0.735075295,-0.315362871,-0.60017544,-0.083862424,-0.070973665,0.100937486,-1.659811974,0.39088285,0.506403506,0.320839007,0.886086101,-2.567576759
0.735075295,-0.315362871,-0.60017544,-0.083862424,-0.070973665,0.100937486,-1.659811974,0.39088285,0.506403506,0.320839007,0.886086101,-2.567576759
0.735075295,-0.315362871,-0.60017544,-0.083862424,-0.070973665,0.100937486,-1.659811974,0.39088285,0.506403506,0.320839007,0.886086101,-2.567576759
0.735075295,-0.315362871,-0.60017544,-0.083862424,-0.070973665,0.100937486,-1.659811974,0.39088285,0.506403506,0.320839007,0.886086101,-2.567576759
0.735075295,-0.315362871,-0.60017544,-0.083862424,-0.070973665,0.100937486,-1.659811974,0.39088285,0.506403506,0.320839007,0.886086101,-2.567576759
0.735075295,-0.315362871,-0.60017544,-0.083862424,-0.070973665,0.100937486,-1.659811974,0.39088285,0.506403506,0.320839007,0.886086101,-2.567576759
0.735075295,-0.315362871,-0.60017544,-0.083862424,-0.070973665,0.100937486,-1.659811974,0.39088285,0.506403506,0.320839007,0.886086101,-2.567576759
0.735075295,-0.315362871,-0.60017544,-0.083862424,-0.070973665,0.100937486,-1.659811974,0.39088285,0.506403506,0.320839007,0.886086101,-2.567576759
0.736951053,-0.298987091,-0.606226027,-0.005476773,-0.062126756,0.122552156,-0.650800765,0.204015329,0.482141942,0.303631029,0.882417812,-2.514106057
0.736951053,-0.298987091,-0.606226027,-0.005476773,-0.062126756,0.122552156,-0.650800765,0.204015329,0.482141942,0.303631029,0.882417812,-2.514106057
0.736951053,-0.298987091,-0.606226027,-0.005476773,-0.062126756,0.122552156,-0.650800765,0.204015329,0.482141942,0.303631029,0.882417812,-2.514106057
0.736951053,-0.298987091,-0.606226027,-0.005476773,-0.062126756,0.122552156,-0.650800765,0.204015329,0.482141942,0.303631029,0.882417812,-2.514106057
0.736951053,-0.298987091,-0.606226027,-0.005476773,-0.062126756,0.122552156,-0.650800765,0.204015329,0.482141942,0.303631029,0.882417812,-2.514106057
0.736951053,-0.298987091,-0.606226027,-0.005476773,-0.062126756,0.122552156,-0.650800765,0.204015329,0.482141942,0.303631029,0.882417812,-2.514106057
0.736951053,-0.298987091,-0.606226027,-0.005476773,-0.062126756,0.122552156,-0.650800765,0.204015329,0.482141942,0.303631029,0.882417812,-2.514106057
0.736951053,-0.298987091,-0.606226027,-0.005476773,-0.062126756,0.122552156,-0.650800765,0.204015329,0.482141942,0.303631029,0.882417812,-2.514106057
0.736951053,-0.298987091,-0.606226027,-0.005476773,-0.062126756,0.122552156,-0.650800765,0.204015329,0.482141942,0.303631029,0.882417812,-2.514106057
0.736951053,-0.298987091,-0.606226027,-0.005476773,-0.062126756,0.122552156,-0.650800765,0.204015329,0.482141942,0.303631029,0.882417812,-2.514106057
0.736951053,-0.298987091,-0.606226027,-0.005476773,-0.062126756,0.122552156,-0.650800765,0.204015329,0.482141942,0.303631029,0.882417812,-2.514106057
0.736951053,-0.298987091,-0.606226027,-0.005476773,-0.062126756,0.122552156,-0.650800765,0.204015329,0.482141942,0.303631029,0.882417812,-2.514106057
0.736951053,-0.298987091,-0.606226027,-0.005476773,-0.062126756,0.122552156,-0.650800765,0.204015329,0.482141942,0.303631029,0.882417812,-2.514106057
0.736951053,-0.298987091,-0.606226027,-0.005476773,-0.062126756,0.122552156,-0.650800765,0.204015329,0.482141942,0.303631029,0.882417812,-2.514106057
0.736951053,-0.298987091,-0.606226027,-0.005476773,-0.062126756,0.122552156,-0.650800765,0.204015329,0.482141942,0.303631029,0.882417812,-2.514106057
0.733799934,-0.300770938,-0.609158874,-0.012076259,0.001333177,0.005779624,-0.711547971,0.158491075,0.464820951,0.30550093,0.877943869,-2.484030379
0.733799934,-0.300770938,-0.609158874,-0.012076259,0.001333177,0.005779624,-0.711547971,0.158491075,0.464820951,0.30550093,0.877943869,-2.484030379
0.733799934,-0.300770938,-0.609158874,-0.012076259,0.001333177,0.005779624,-0.711547971,0.158491075,0.464820951,0.30550093,0.877943869,-2.484030379
0.733799934,-0.300770938,-0.609158874,-0.012076259,0.001333177,0.005779624,-0.711547971,0.158491075,0.464820951,0.30550093,0.877943869,-2.484030379
0.733799934,-0.300770938,-0.609158874,-0.012076259,0.001333177,0.005779624,-0.711547971,0.158491075,0.464820951,0.30550093,0.877943869,-2.484030379
0.733799934,-0.300770938,-0.609158874,-0.012076259,0.001333177,0.005779624,-0.711547971,0.158491075,0.464820951,0.30550093,0.877943869,-2.484030379
0.733799934,-0.300770938,-0.609158874,-0.012076259,0.001333177,0.005779624,-0.711547971,0.158491075,0.464820951,0.30550093,0.877943869,-2.484030379
0.733799934,-0.300770938,-0.609158874,-0.012076259,0.001333177,0.005779624,-0.711547971,0.158491075,0.464820951,0.30550093,0.877943869,-2.484030379
0.733799934,-0.300770938,-0.609158874,-0.012076259,0.001333177,0.005779624,-0.711547971,0.158491075,0.464820951,0.30550093,0.877943869,-2.484030379
0.733799934,-0.300770938,-0.609158874,-0.012076259,0.001333177,0.005779624,-0.711547971,0.158491075,0.464820951,0.30550093,0.877943869,-2.484030379
0.740118384,-0.286281854,-0.608496249,0.021506906,-0.093737572,-0.093775272,-1.218539596,0.532576144,0.325205833,0.290343998,0.882688085,-2.441998768
0.740118384,-0.286281854,-0.608496249,0.021506906,-0.093737572,-0.093775272,-1.218539596,0.532576144,0.325205833,0.290343998,0.882688085,-2.441998768
0.740118384,-0.286281854,-0.608496249,0.021506906,-0.093737572,-0.093775272,-1.218539596,0.532576144,0.325205833,0.290343998,0.882688085,-2.441998768
0.740118384,-0.286281854,-0.608496249,0.021506906,-0.093737572,-0.093775272,-1.218539596,0.532576144,0.325205833,0.290343998,0.882688085,-2.441998768
0.740118384,-0.286281854,-0.608496249,0.021506906,-0.093737572,-0.093775272,-1.218539596,0.532576144,0.325205833,0.290343998,0.882688085,-2.441998768
0.740118384,-0.286281854,-0.608496249,0.021506906,-0.093737572,-0.093775272,-1.218539596,0.532576144,0.325205833,0.290343998,0.882688085,-2.441998768
0.740118384,-0.286281854,-0.608496249,0.021506906,-0.093737572,-0.093775272,-1.218539596,0.532576144,0.325205833,0.290343998,0.882688085,-2.441998768
0.740118384,-0.286281854,-0.608496249,0.021506906,-0.093737572,-0.093775272,-1.218539596,0.532576144,0.325205833,0.290343998,0.882688085,-2.441998768
0.740118384,-0.286281854,-0.608496249,0.021506906,-0.093737572,-0.093775272,-1.218539596,0.532576144,0.325205833,0.290343998,0.882688085,-2.441998768
0.740118384,-0.286281854,-0.608496249,0.021506906,-0.093737572,-0.093775272,-1.218539596,0.532576144,0.325205833,0.290343998,0.882688085,-2.441998768
0.740118384,-0.286281854,-0.608496249,0.021506906,-0.093737572,-0.093775272,-1.218539596,0.532576144,0.325205833,0.290343998,0.882688085,-2.441998768
0.740118384,-0.286281854,-0.608496249,0.021506906,-0.093737572,-0.093775272,-1.218539596,0.532576144,0.325205833,0.290343998,0.882688085,-2.441998768
0.74615109,-0.26854521,-0.609214365,-0.000532269,0.005911648,-0.015145719,-0.901188314,0.214098528,0.296418279,0.271882455,0.886089512,-2.397345292
0.74615109,-0.26854521,-0.609214365,-0.000532269,0.005911648,-0.015145719,-0.901188314,0.214098528,0.296418279,0.271882455,0.886089512,-2.397345292
0.74615109,-0.26854521,-0.609214365,-0.000532269,0.005911648,-0.015145719,-0.901188314,0.214098528,0.296418279,0.271882455,0.886089512,-2.397345292
0.74615109,-0.26854521,-0.609214365,-0.000532269,0.005911648,-0.015145719,-0.901188314,0.214098528,0.296418279,0.271882455,0.886089512,-2.397345292
0.74615109,-0.26854521,-0.609214365,-0.000532269,0.005911648,-0.015145719,-0.901188314,0.214098528,0.296418279,0.271882455,0.886089512,-2.397345292
0.74615109,-0.26854521,-0.609214365,-0.000532269,0.005911648,-0.015145719,-0.901188314,0.214098528,0.296418279,0.271882455,0.886089512,-2.397345292
0.74615109,-0.26854521,-0.609214365,-0.000532269,0.005911648,-0.015145719,-0.901188314,0.214098528,0.296418279,0.271882455,0.886089512,-2.397345292
0.74615109,-0.26854521,-0.609214365,-0.000532269,0.005911648,-0.015145719,-0.901188314,0.214098528,0.296418279,0.271882455,0.886089512,-2.397345292
0.74615109,-0.26854521,-0.609214365,-0.000532269,0.005911648,-0.015145719,-0.901188314,0.214098528,0.296418279,0.271882455,0.886089512,-2.397345292
0.74615109,-0.26854521,-0.609214365,-0.000532269,0.005911648,-0.015145719,-0.901188314,0.214098528,0.296418279,0.271882455,0.886089512,-2.397345292
0.74615109,-0.26854521,-0.609214365,-0.000532269,0.005911648,-0.015145719,-0.901188314,0.214098528,0.296418279,0.271882455,0.886089512,-2.397345292
0.74615109,-0.26854521,-0.609214365,-0.000532269,0.005911648,-0.015145719,-0.901188314,0.214098528,0.296418279,0.271882455,0.886089512,-2.397345292
0.74615109,-0.26854521,-0.609214365,-0.000532269,0.005911648,-0.015145719,-0.901188314,0.214098528,0.296418279,0.271882455,0.886089512,-2.397345292
0.74615109,-0.26854521,-0.609214365,-0.000532269,0.005911648,-0.015145719,-0.901188314,0.214098528,0.296418279,0.271882455,0.886089512,-2.397345292
0.74615109,-0.26854521,-0.609214365,-0.000532269,0.005911648,-0.015145719,-0.901188314,0.214098528,0.296418279,0.271882455,0.886089512,-2.397345292
0.74615109,-0.26854521,-0.609214365,-0.000532269,0.005911648,-0.015145719,-0.901188314,0.214098528,0.296418279,0.271882455,0.886089512,-2.397345292
0.748983026,-0.254416704,-0.611797929,-0.061866462,-0.068000853,0.036967874,-1.305415869,0.475674659,0.328443915,0.257244526,0.885872214,-2.356013065
0.748983026,-0.254416704,-0.611797929,-0.061866462,-0.068000853,0.036967874,-1.305415869,0.475674659,0.328443915,0.257244526,0.885872214,-2.356013065
0.748983026,-0.254416704,-0.611797929,-0.061866462,-0.068000853,0.036967874,-1.305415869,0.475674659,0.328443915,0.257244526,0.885872214,-2.356013065
0.748983026,-0.254416704,-0.611797929,-0.061866462,-0.068000853,0.036967874,-1.305415869,0.475674659,0.328443915,0.257244526,0.885872214,-2.356013065
0.748983026,-0.254416704,-0.611797929,-0.061866462,-0.068000853,0.036967874,-1.305415869,0.475674659,0.328443915,0.257244526,0.885872214,-2.356013065
0.748983026,-0.254416704,-0.611797929,-0.061866462,-0.068000853,0.036967874,-1.305415869,0.475674659,0.328443915,0.257244526,0.885872214,-2.356013065
0.748983026,-0.254416704,-0.611797929,-0.061866462,-0.068000853,0.036967874,-1.305415869,0.475674659,0.328443915,0.257244526,0.885872214,-2.356013065
0.748983026,-0.254416704,-0.611797929,-0.061866462,-0.068000853,0.036967874,-1.305415869,0.475674659,0.328443915,0.257244526,0.885872214,-2.356013065
0.748983026,-0.254416704,-0.611797929,-0.061866462,-0.068000853,0.036967874,-1.305415869,0.475674659,0.328443915,0.257244526,0.885872214,-2.356013065
0.748983026,-0.254416704,-0.611797929,-0.061866462,-0.068000853,0.036967874,-1.305415869,0.475674659,0.328443915,0.257244526,0.885872214,-2.356013065
0.748983026,-0.254416704,-0.611797929,-0.061866462,-0.068000853,0.036967874,-1.305415869,0.475674659,0.328443915,0.257244526,0.885872214,-2.356013065
0.748983026,-0.254416704,-0.611797929,-0.061866462,-0.068000853,0.036967874,-1.305415869,0.475674659,0.328443915,0.257244526,0.885872214,-2.356013065
0.748983026,-0.254416704,-0.611797929,-0.061866462,-0.068000853,0.036967874,-1.305415869,0.475674659,0.328443915,0.257244526,0.885872214,-2.356013065
0.756487608,-0.22078231,-0.61561501,0.008448601,-0.070598885,-0.019182205,-2.194775343,0.340017796,0.345807463,0.222616501,0.887708849,-2.291397655
0.756487608,-0.22078231,-0.61561501,0.008448601,-0.070598885,-0.019182205,-2.194775343,0.340017796,0.345807463,0.222616501,0.887708849,-2.291397655
0.756487608,-0.22078231,-0.61561501,0.008448601,-0.070598885,-0.019182205,-2.194775343,0.340017796,0.345807463,0.222616501,0.887708849,-2.291397655
0.756487608,-0.22078231,-0.61561501,0.008448601,-0.070598885,-0.019182205,-2.194775343,0.340017796,0.345807463,0.222616501,0.887708849,-2.291397655
0.756487608,-0.22078231,-0.61561501,0.008448601,-0.070598885,-0.019182205,-2.194775343,0.340017796,0.345807463,0.222616501,0.887708849,-2.291397655
0.756487608,-0.22078231,-0.61561501,0.008448601,-0.070598885,-0.019182205,-2.194775343,0.340017796,0.345807463,0.222616501,0.887708849,-2.291397655
0.756487608,-0.22078231,-0.61561501,0.008448601,-0.070598885,-0.019182205,-2.194775343,0.340017796,0.345807463,0.222616501,0.887708849,-2.291397655
0.756487608,-0.22078231,-0.61561501,0.008448601,-0.070598885,-0.019182205,-2.194775343,0.340017796,0.345807463,0.222616501,0.887708849,-2.291397655
0.756487608,-0.22078231,-0.61561501,0.008448601,-0.070598885,-0.019182205,-2.194775343,0.340017796,0.345807463,0.222616501,0.887708849,-2.291397655
0.756487608,-0.22078231,-0.61561501,0.008448601,-0.070598885,-0.019182205,-2.194775343,0.340017796,0.345807463,0.222616501,0.887708849,-2.291397655
0.756487608,-0.22078231,-0.61561501,0.008448601,-0.070598885,-0.019182205,-2.194775343,0.340017796,0.345807463,0.222616501,0.887708849,-2.291397655
0.756487608,-0.22078231,-0.61561501,0.008448601,-0.070598885,-0.019182205,-2.194775343,0.340017796,0.345807463,0.222616501,0.887708849,-2.291397655
0.756487608,-0.22078231,-0.61561501,0.008448601,-0.070598885,-0.019182205,-2.194775343,0.340017796,0.345807463,0.222616501,0.887708849,-2.291397655
0.765448153,-0.168075457,-0.62116003,0.02414608,-0.098861262,0.020527124,-2.785393,0.510655701,0.172480643,0.168877028,0.889083343,-2.205248744
0.765448153,-0.168075457,-0.62116003,0.02414608,-0.098861262,0.020527124,-2.785393,0.510655701,0.172480643,0.168877028,0.889083343,-2.205248744
0.765448153,-0.168075457,-0.62116003,0.02414608,-0.098861262,0.020527124,-2.785393,0.510655701,0.172480643,0.168877028,0.889083343,-2.205248744
0.765448153,-0.168075457,-0.62116003,0.02414608,-0.098861262,0.020527124,-2.785393,0.510655701,0.172480643,0.168877028,0.889083343,-2.205248744
0.765448153,-0.168075457,-0.62116003,0.02414608,-0.098861262,0.020527124,-2.785393,0.510655701,0.172480643,0.168877028,0.889083343,-2.205248744
0.765448153,-0.168075457,-0.62116003,0.02414608,-0.098861262,0.020527124,-2.785393,0.510655701,0.172480643,0.168877028,0.889083343,-2.205248744
0.765448153,-0.168075457,-0.62116003,0.02414608,-0.098861262,0.020527124,-2.785393,0.510655701,0.172480643,0.168877028,0.889083343,-2.205248744
0.765448153,-0.168075457,-0.62116003,0.02414608,-0.098861262,0.020527124,-2.785393,0.510655701,0.172480643,0.168877028,0.889083343,-2.205248744
0.765448153,-0.168075457,-0.62116003,0.02414608,-0.098861262,0.020527124,-2.785393,0.510655701,0.172480643,0.168877028,0.889083343,-2.205248744
0.765448153,-0.168075457,-0.62116003,0.02414608,-0.098861262,0.020527124,-2.785393,0.510655701,0.172480643,0.168877028,0.889083343,-2.205248744
0.765448153,-0.168075457,-0.62116003,0.02414608,-0.098861262,0.020527124,-2.785393,0.510655701,0.172480643,0.168877028,0.889083343,-2.205248744
0.765448153,-0.168075457,-0.62116003,0.02414608,-0.098861262,0.020527124,-2.785393,0.510655701,0.172480643,0.168877028,0.889083343,-2.205248744
0.765448153,-0.168075457,-0.62116003,0.02414608,-0.098861262,0.020527124,-2.785393,0.510655701,0.172480643,0.168877028,0.889083343,-2.205248744
0.765448153,-0.168075457,-0.62116003,0.02414608,-0.098861262,0.020527124,-2.785393,0.510655701,0.172480643,0.168877028,0.889083343,-2.205248744
0.765448153,-0.168075457,-0.62116003,0.02414608,-0.098861262,0.020527124,-2.785393,0.510655701,0.172480643,0.168877028,0.889083343,-2.205248744
0.765448153,-0.168075457,-0.62116003,0.02414608,-0.098861262,0.020527124,-2.785393,0.510655701,0.172480643,0.168877028,0.889083343,-2.205248744
0.765448153,-0.168075457,-0.62116003,0.02414608,-0.098861262,0.020527124,-2.785393,0.510655701,0.172480643,0.168877028,0.889083343,-2.205248744
0.765448153,-0.168075457,-0.62116003,0.02414608,-0.098861262,0.020527124,-2.785393,0.510655701,0.172480643,0.168877028,0.889083343,-2.205248744
0.775358319,-0.114271834,-0.621097028,0.024459243,0.044478476,0.027376413,-1.497111201,0.229637653,0.161417544,0.114522002,0.895418442,-2.128266136
0.775358319,-0.114271834,-0.621097028,0.024459243,0.044478476,0.027376413,-1.497111201,0.229637653,0.161417544,0.114522002,0.895418442,-2.128266136
0.775358319,-0.114271834,-0.621097028,0.024459243,0.044478476,0.027376413,-1.497111201,0.229637653,0.161417544,0.114522002,0.895418442,-2.128266136
0.775358319,-0.114271834,-0.621097028,0.024459243,0.044478476,0.027376413,-1.497111201,0.229637653,0.161417544,0.114522002,0.895418442,-2.128266136
0.775358319,-0.114271834,-0.621097028,0.024459243,0.044478476,0.027376413,-1.497111201,0.229637653,0.161417544,0.114522002,0.895418442,-2.128266136
0.775358319,-0.114271834,-0.621097028,0.024459243,0.044478476,0.027376413,-1.497111201,0.229637653,0.161417544,0.114522002,0.895418442,-2.128266136
0.775358319,-0.114271834,-0.621097028,0.024459243,0.044478476,0.027376413,-1.497111201,0.229637653,0.161417544,0.114522002,0.895418442,-2.128266136
0.775358319,-0.114271834,-0.621097028,0.024459243,0.044478476,0.027376413,-1.497111201,0.229637653,0.161417544,0.114522002,0.895418442,-2.128266136
0.775358319,-0.114271834,-0.621097028,0.024459243,0.044478476,0.027376413,-1.497111201,0.229637653,0.161417544,0.114522002,0.895418442,-2.128266136
0.775358319,-0.114271834,-0.621097028,0.024459243,0.044478476,0.027376413,-1.497111201,0.229637653,0.161417544,0.114522002,0.895418442,-2.128266136
0.775358319,-0.114271834,-0.621097028,0.024459243,0.044478476,0.027376413,-1.497111201,0.229637653,0.161417544,0.114522002,0.895418442,-2.128266136
0.775358319,-0.114271834,-0.621097028,0.024459243,0.044478476,0.027376413,-1.497111201,0.229637653,0.161417544,0.114522002,0.895418442,-2.128266136
0.775358319,-0.114271834,-0.621097028,0.024459243,0.044478476,0.027376413,-1.497111201,0.229637653,0.161417544,0.114522002,0.895418442,-2.128266136
0.775358319,-0.114271834,-0.621097028,0.024459243,0.044478476,0.027376413,-1.497111201,0.229637653,0.161417544,0.114522002,0.895418442,-2.128266136
0.775358319,-0.114271834,-0.621097028,0.024459243,0.044478476,0.027376413,-1.497111201,0.229637653,0.161417544,0.114522002,0.895418442,-2.128266136
0.775358319,-0.114271834,-0.621097028,0.024459243,0.044478476,0.027376413,-1.497111201,0.229637653,0.161417544,0.114522002,0.895418442,-2.128266136
0.775358319,-0.114271834,-0.621097028,0.024459243,0.044478476,0.027376413,-1.497111201,0.229637653,0.161417544,0.114522002,0.895418442,-2.128266136
0.775358319,-0.114271834,-0.621097028,0.024459243,0.044478476,0.027376413,-1.497111201,0.229637653,0.161417544,0.114522002,0.895418442,-2.128266136
0.775358319,-0.114271834,-0.621097028,0.024459243,0.044478476,0.027376413,-1.497111201,0.229637653,0.161417544,0.114522002,0.895418442,-2.128266136
0.775358319,-0.114271834,-0.621097028,0.024459243,0.044478476,0.027376413,-1.497111201,0.229637653,0.161417544,0.114522002,0.895418442,-2.128266136
0.773789346,-0.101126909,-0.625318587,-0.098254979,0.074195504,0.01853621,-0.448250979,-0.204501525,0.241648734,0.101300074,0.891120678,-2.095722834
0.773789346,-0.101126909,-0.625318587,-0.098254979,0.074195504,0.01853621,-0.448250979,-0.204501525,0.241648734,0.101300074,0.891120678,-2.095722834
0.773789346,-0.101126909,-0.625318587,-0.098254979,0.074195504,0.01853621,-0.448250979,-0.204501525,0.241648734,0.101300074,0.891120678,-2.095722834
0.773789346,-0.101126909,-0.625318587,-0.098254979,0.074195504,0.01853621,-0.448250979,-0.204501525,0.241648734,0.101300074,0.891120678,-2.095722834
0.773789346,-0.101126909,-0.625318587,-0.098254979,0.074195504,0.01853621,-0.448250979,-0.204501525,0.241648734,0.101300074,0.891120678,-2.095722834
0.773789346,-0.101126909,-0.625318587,-0.098254979,0.074195504,0.01853621,-0.448250979,-0.204501525,0.241648734,0.101300074,0.891120678,-2.095722834
0.773789346,-0.101126909,-0.625318587,-0.098254979,0.074195504,0.01853621,-0.448250979,-0.204501525,0.241648734,0.101300074,0.891120678,-2.095722834
0.773789346,-0.101126909,-0.625318587,-0.098254979,0.074195504,0.01853621,-0.448250979,-0.204501525,0.241648734,0.101300074,0.891120678,-2.095722834
0.773789346,-0.101126909,-0.625318587,-0.098254979,0.074195504,0.01853621,-0.448250979,-0.204501525,0.241648734,0.101300074,0.891120678,-2.095722834
0.773789346,-0.101126909,-0.625318587,-0.098254979,0.074195504,0.01853621,-0.448250979,-0.204501525,0.241648734,0.101300074,0.891120678,-2.095722834
0.773789346,-0.101126909,-0.625318587,-0.098254979,0.074195504,0.01853621,-0.448250979,-0.204501525,0.241648734,0.101300074,0.891120678,-2.095722834
0.773789346,-0.101126909,-0.625318587,-0.098254979,0.074195504,0.01853621,-0.448250979,-0.204501525,0.241648734,0.101300074,0.891120678,-2.095722834
0.773789346,-0.101126909,-0.625318587,-0.098254979,0.074195504,0.01853621,-0.448250979,-0.204501525,0.241648734,0.101300074,0.891120678,-2.095722834
0.773789346,-0.101126909,-0.625318587,-0.098254979,0.074195504,0.01853621,-0.448250979,-0.204501525,0.241648734,0.101300074,0.891120678,-2.095722834
0.773789346,-0.101126909,-0.625318587,-0.098254979,0.074195504,0.01853621,-0.448250979,-0.204501525,0.241648734,0.101300074,0.891120678,-2.095722834
0.773789346,-0.101126909,-0.625318587,-0.098254979,0.074195504,0.01853621,-0.448250979,-0.204501525,0.241648734,0.101300074,0.891120678,-2.095722834
0.773789346,-0.101126909,-0.625318587,-0.098254979,0.074195504,0.01853621,-0.448250979,-0.204501525,0.241648734,0.101300074,0.891120678,-2.095722834
0.773789346,-0.101126909,-0.625318587,-0.098254979,0.074195504,0.01853621,-0.448250979,-0.204501525,0.241648734,0.101300074,0.891120678,-2.095722834
0.765546978,-0.100112952,-0.635543227,-0.332673132,0.033310294,0.147275984,-1.094236612,-0.225205138,0.917403579,0.100280942,0.87792081,-2.061096156
0.765546978,-0.100112952,-0.635543227,-0.332673132,0.033310294,0.147275984,-1.094236612,-0.225205138,0.917403579,0.100280942,0.87792081,-2.061096156
0.765546978,-0.100112952,-0.635543227,-0.332673132,0.033310294,0.147275984,-1.094236612,-0.225205138,0.917403579,0.100280942,0.87792081,-2.061096156
0.765546978,-0.100112952,-0.635543227,-0.332673132,0.033310294,0.147275984,-1.094236612,-0.225205138,0.917403579,0.100280942,0.87792081,-2.061096156
0.765546978,-0.100112952,-0.635543227,-0.332673132,0.033310294,0.147275984,-1.094236612,-0.225205138,0.917403579,0.100280942,0.87792081,-2.061096156
0.765546978,-0.100112952,-0.635543227,-0.332673132,0.033310294,0.147275984,-1.094236612,-0.225205138,0.917403579,0.100280942,0.87792081,-2.061096156
0.765546978,-0.100112952,-0.635543227,-0.332673132,0.033310294,0.147275984,-1.094236612,-0.225205138,0.917403579,0.100280942,0.87792081,-2.061096156
0.765546978,-0.100112952,-0.635543227,-0.332673132,0.033310294,0.147275984,-1.094236612,-0.225205138,0.917403579,0.100280942,0.87792081,-2.061096156
0.765546978,-0.100112952,-0.635543227,-0.332673132,0.033310294,0.147275984,-1.094236612,-0.225205138,0.917403579,0.100280942,0.87792081,-2.061096156
0.765546978,-0.100112952,-0.635543227,-0.332673132,0.033310294,0.147275984,-1.094236612,-0.225205138,0.917403579,0.100280942,0.87792081,-2.061096156
0.765546978,-0.100112952,-0.635543227,-0.332673132,0.033310294,0.147275984,-1.094236612,-0.225205138,0.917403579,0.100280942,0.87792081,-2.061096156
0.765546978,-0.100112952,-0.635543227,-0.332673132,0.033310294,0.147275984,-1.094236612,-0.225205138,0.917403579,0.100280942,0.87792081,-2.061096156
0.765546978,-0.100112952,-0.635543227,-0.332673132,0.033310294,0.147275984,-1.094236612,-0.225205138,0.917403579,0.100280942,0.87792081,-2.061096156
0.765546978,-0.100112952,-0.635543227,-0.332673132,0.033310294,0.147275984,-1.094236612,-0.225205138,0.917403579,0.100280942,0.87792081,-2.061096156
0.765546978,-0.100112952,-0.635543227,-0.332673132,0.033310294,0.147275984,-1.094236612,-0.225205138,0.917403579,0.100280942,0.87792081,-2.061096156
0.765546978,-0.100112952,-0.635543227,-0.332673132,0.033310294,0.147275984,-1.094236612,-0.225205138,0.917403579,0.100280942,0.87792081,-2.061096156
0.765546978,-0.100112952,-0.635543227,-0.332673132,0.033310294,0.147275984,-1.094236612,-0.225205138,0.917403579,0.100280942,0.87792081,-2.061096156
0.765546978,-0.100112952,-0.635543227,-0.332673132,0.033310294,0.147275984,-1.094236612,-0.225205138,0.917403579,0.100280942,0.87792081,-2.061096156
0.765546978,-0.100112952,-0.635543227,-0.332673132,0.033310294,0.147275984,-1.094236612,-0.225205138,0.917403579,0.100280942,0.87792081,-2.061096156
0.765546978,-0.100112952,-0.635543227,-0.332673132,0.033310294,0.147275984,-1.094236612,-0.225205138,0.917403579,0.100280942,0.87792081,-2.061096156
0.765546978,-0.100112952,-0.635543227,-0.332673132,0.033310294,0.147275984,-1.094236612,-0.225205138,0.917403579,0.100280942,0.87792081,-2.061096156
0.756535828,-0.10882175,-0.644834399,-0.430015504,0.238491267,0.278820693,-1.007071614,-0.081685722,1.72905755,0.109037684,0.864938719,-1.988687183
0.756535828,-0.10882175,-0.644834399,-0.430015504,0.238491267,0.278820693,-1.007071614,-0.081685722,1.72905755,0.109037684,0.864938719,-1.988687183
0.756535828,-0.10882175,-0.644834399,-0.430015504,0.238491267,0.278820693,-1.007071614,-0.081685722,1.72905755,0.109037684,0.864938719,-1.988687183
0.756535828,-0.10882175,-0.644834399,-0.430015504,0.238491267,0.278820693,-1.007071614,-0.081685722,1.72905755,0.109037684,0.864938719,-1.988687183
0.756535828,-0.10882175,-0.644834399,-0.430015504,0.238491267,0.278820693,-1.007071614,-0.081685722,1.72905755,0.109037684,0.864938719,-1.988687183
0.756535828,-0.10882175,-0.644834399,-0.430015504,0.238491267,0.278820693,-1.007071614,-0.081685722,1.72905755,0.109037684,0.864938719,-1.988687183
0.566336751,-0.421395838,-0.708299577,-0.245126009,0.106532246,0.327484965,0.963582635,-2.175927401,3.871268988,0.434983952,0.674480124,-1.803627941
0.566336751,-0.421395838,-0.708299577,-0.245126009,0.106532246,0.327484965,0.963582635,-2.175927401,3.871268988,0.434983952,0.674480124,-1.803627941
0.566336751,-0.421395838,-0.708299577,-0.245126009,0.106532246,0.327484965,0.963582635,-2.175927401,3.871268988,0.434983952,0.674480124,-1.803627941
0.566336751,-0.421395838,-0.708299577,-0.245126009,0.106532246,0.327484965,0.963582635,-2.175927401,3.871268988,0.434983952,0.674480124,-1.803627941
0.566336751,-0.421395838,-0.708299577,-0.245126009,0.106532246,0.327484965,0.963582635,-2.175927401,3.871268988,0.434983952,0.674480124,-1.803627941
0.566336751,-0.421395838,-0.708299577,-0.245126009,0.106532246,0.327484965,0.963582635,-2.175927401,3.871268988,0.434983952,0.674480124,-1.803627941
0.413132936,-0.513069153,-0.752383709,-0.265017539,-0.0585078,0.213610113,-0.26489383,-2.579647541,4.695487976,0.53875662,0.502150984,-1.649662022
0.413132936,-0.513069153,-0.752383709,-0.265017539,-0.0585078,0.213610113,-0.26489383,-2.579647541,4.695487976,0.53875662,0.502150984,-1.649662022
0.413132936,-0.513069153,-0.752383709,-0.265017539,-0.0585078,0.213610113,-0.26489383,-2.579647541,4.695487976,0.53875662,0.502150984,-1.649662022
0.413132936,-0.513069153,-0.752383709,-0.265017539,-0.0585078,0.213610113,-0.26489383,-2.579647541,4.695487976,0.53875662,0.502150984,-1.649662022
0.413132936,-0.513069153,-0.752383709,-0.265017539,-0.0585078,0.213610113,-0.26489383,-2.579647541,4.695487976,0.53875662,0.502150984,-1.649662022
0.413132936,-0.513069153,-0.752383709,-0.265017539,-0.0585078,0.213610113,-0.26489383,-2.579647541,4.695487976,0.53875662,0.502150984,-1.649662022
0.413132936,-0.513069153,-0.752383709,-0.265017539,-0.0585078,0.213610113,-0.26489383,-2.579647541,4.695487976,0.53875662,0.502150984,-1.649662022
0.413132936,-0.513069153,-0.752383709,-0.265017539,-0.0585078,0.213610113,-0.26489383,-2.579647541,4.695487976,0.53875662,0.502150984,-1.649662022
0.413132936,-0.513069153,-0.752383709,-0.265017539,-0.0585078,0.213610113,-0.26489383,-2.579647541,4.695487976,0.53875662,0.502150984,-1.649662022
0.221389323,-0.556806207,-0.80059582,-0.156052113,0.203735471,0.206555009,-0.848794043,-2.922426939,5.326802254,0.590535843,0.26978874,-1.417123188
0.221389323,-0.556806207,-0.80059582,-0.156052113,0.203735471,0.206555009,-0.848794043,-2.922426939,5.326802254,0.590535843,0.26978874,-1.417123188
0.221389323,-0.556806207,-0.80059582,-0.156052113,0.203735471,0.206555009,-0.848794043,-2.922426939,5.326802254,0.590535843,0.26978874,-1.417123188
0.221389323,-0.556806207,-0.80059582,-0.156052113,0.203735471,0.206555009,-0.848794043,-2.922426939,5.326802254,0.590535843,0.26978874,-1.417123188
0.221389323,-0.556806207,-0.80059582,-0.156052113,0.203735471,0.206555009,-0.848794043,-2.922426939,5.326802254,0.590535843,0.26978874,-1.417123188
0.221389323,-0.556806207,-0.80059582,-0.156052113,0.203735471,0.206555009,-0.848794043,-2.922426939,5.326802254,0.590535843,0.26978874,-1.417123188
0.221389323,-0.556806207,-0.80059582,-0.156052113,0.203735471,0.206555009,-0.848794043,-2.922426939,5.326802254,0.590535843,0.26978874,-1.417123188
-0.220593467,-0.44987911,-0.865417421,-0.149904162,0.157461703,0.13287288,-0.457436234,-2.951461554,5.915177345,0.466629978,-0.249583531,-0.896648127
-0.220593467,-0.44987911,-0.865417421,-0.149904162,0.157461703,0.13287288,-0.457436234,-2.951461554,5.915177345,0.466629978,-0.249583531,-0.896648127
-0.220593467,-0.44987911,-0.865417421,-0.149904162,0.157461703,0.13287288,-0.457436234,-2.951461554,5.915177345,0.466629978,-0.249583531,-0.896648127
-0.220593467,-0.44987911,-0.865417421,-0.149904162,0.157461703,0.13287288,-0.457436234,-2.951461554,5.915177345,0.466629978,-0.249583531,-0.896648127
-0.220593467,-0.44987911,-0.865417421,-0.149904162,0.157461703,0.13287288,-0.457436234,-2.951461554,5.915177345,0.466629978,-0.249583531,-0.896648127
-0.220593467,-0.44987911,-0.865417421,-0.149904162,0.157461703,0.13287288,-0.457436234,-2.951461554,5.915177345,0.466629978,-0.249583531,-0.896648127
-0.422353655,-0.407828778,-0.809501767,-0.15044415,0.054498076,0.139685869,1.170768976,-3.355646133,4.195567608,0.420074838,-0.480892026,-0.670652634
-0.422353655,-0.407828778,-0.809501767,-0.15044415,0.054498076,0.139685869,1.170768976,-3.355646133,4.195567608,0.420074838,-0.480892026,-0.670652634
-0.422353655,-0.407828778,-0.809501767,-0.15044415,0.054498076,0.139685869,1.170768976,-3.355646133,4.195567608,0.420074838,-0.480892026,-0.670652634
-0.422353655,-0.407828778,-0.809501767,-0.15044415,0.054498076,0.139685869,1.170768976,-3.355646133,4.195567608,0.420074838,-0.480892026,-0.670652634
-0.422353655,-0.407828778,-0.809501767,-0.15044415,0.054498076,0.139685869,1.170768976,-3.355646133,4.195567608,0.420074838,-0.480892026,-0.670652634
-0.422353655,-0.407828778,-0.809501767,-0.15044415,0.054498076,0.139685869,1.170768976,-3.355646133,4.195567608,0.420074838,-0.480892026,-0.670652634
-0.422353655,-0.407828778,-0.809501767,-0.15044415,0.054498076,0.139685869,1.170768976,-3.355646133,4.195567608,0.420074838,-0.480892026,-0.670652634
-0.422353655,-0.407828778,-0.809501767,-0.15044415,0.054498076,0.139685869,1.170768976,-3.355646133,4.195567608,0.420074838,-0.480892026,-0.670652634
-0.422353655,-0.407828778,-0.809501767,-0.15044415,0.054498076,0.139685869,1.170768976,-3.355646133,4.195567608,0.420074838,-0.480892026,-0.670652634
-0.422353655,-0.407828778,-0.809501767,-0.15044415,0.054498076,0.139685869,1.170768976,-3.355646133,4.195567608,0.420074838,-0.480892026,-0.670652634
-0.422353655,-0.407828778,-0.809501767,-0.15044415,0.054498076,0.139685869,1.170768976,-3.355646133,4.195567608,0.420074838,-0.480892026,-0.670652634
-0.422353655,-0.407828778,-0.809501767,-0.15044415,0.054498076,0.139685869,1.170768976,-3.355646133,4.195567608,0.420074838,-0.480892026,-0.670652634
-0.575209379,-0.338658363,-0.744610488,-0.607893288,-0.434853792,-0.228794694,0.983267128,-2.377094507,3.976759434,0.345490627,-0.657744402,-0.497764651
-0.575209379,-0.338658363,-0.744610488,-0.607893288,-0.434853792,-0.228794694,0.983267128,-2.377094507,3.976759434,0.345490627,-0.657744402,-0.497764651
-0.575209379,-0.338658363,-0.744610488,-0.607893288,-0.434853792,-0.228794694,0.983267128,-2.377094507,3.976759434,0.345490627,-0.657744402,-0.497764651
-0.575209379,-0.338658363,-0.744610488,-0.607893288,-0.434853792,-0.228794694,0.983267128,-2.377094507,3.976759434,0.345490627,-0.657744402,-0.497764651
-0.575209379,-0.338658363,-0.744610488,-0.607893288,-0.434853792,-0.228794694,0.983267128,-2.377094507,3.976759434,0.345490627,-0.657744402,-0.497764651
-0.575209379,-0.338658363,-0.744610488,-0.607893288,-0.434853792,-0.228794694,0.983267128,-2.377094507,3.976759434,0.345490627,-0.657744402,-0.497764651
-0.575209379,-0.338658363,-0.744610488,-0.607893288,-0.434853792,-0.228794694,0.983267128,-2.377094507,3.976759434,0.345490627,-0.657744402,-0.497764651
-0.575209379,-0.338658363,-0.744610488,-0.607893288,-0.434853792,-0.228794694,0.983267128,-2.377094507,3.976759434,0.345490627,-0.657744402,-0.497764651
-0.686692536,-0.332542986,-0.646427631,-0.335230768,-0.464620203,-0.206448972,3.122921705,-2.470034361,2.557153463,0.33899875,-0.815592506,-0.330431287
-0.686692536,-0.332542986,-0.646427631,-0.335230768,-0.464620203,-0.206448972,3.122921705,-2.470034361,2.557153463,0.33899875,-0.815592506,-0.330431287
-0.686692536,-0.332542986,-0.646427631,-0.335230768,-0.464620203,-0.206448972,3.122921705,-2.470034361,2.557153463,0.33899875,-0.815592506,-0.330431287
-0.686692536,-0.332542986,-0.646427631,-0.335230768,-0.464620203,-0.206448972,3.122921705,-2.470034361,2.557153463,0.33899875,-0.815592506,-0.330431287
-0.686692536,-0.332542986,-0.646427631,-0.335230768,-0.464620203,-0.206448972,3.122921705,-2.470034361,2.557153463,0.33899875,-0.815592506,-0.330431287
-0.686692536,-0.332542986,-0.646427631,-0.335230768,-0.464620203,-0.206448972,3.122921705,-2.470034361,2.557153463,0.33899875,-0.815592506,-0.330431287
-0.686692536,-0.332542986,-0.646427631,-0.335230768,-0.464620203,-0.206448972,3.122921705,-2.470034361,2.557153463,0.33899875,-0.815592506,-0.330431287
-0.686692536,-0.332542986,-0.646427631,-0.335230768,-0.464620203,-0.206448972,3.122921705,-2.470034361,2.557153463,0.33899875,-0.815592506,-0.330431287
-0.686692536,-0.332542986,-0.646427631,-0.335230768,-0.464620203,-0.206448972,3.122921705,-2.470034361,2.557153463,0.33899875,-0.815592506,-0.330431287
-0.686692536,-0.332542986,-0.646427631,-0.335230768,-0.464620203,-0.206448972,3.122921705,-2.470034361,2.557153463,0.33899875,-0.815592506,-0.330431287
-0.686692536,-0.332542986,-0.646427631,-0.335230768,-0.464620203,-0.206448972,3.122921705,-2.470034361,2.557153463,0.33899875,-0.815592506,-0.330431287
-0.686692536,-0.332542986,-0.646427631,-0.335230768,-0.464620203,-0.206448972,3.122921705,-2.470034361,2.557153463,0.33899875,-0.815592506,-0.330431287
-0.761485934,-0.324728817,-0.560972691,-0.327743292,-0.307456315,-0.034473419,2.50975585,-1.439540863,1.731619477,0.330724992,-0.935873634,-0.185294501
-0.761485934,-0.324728817,-0.560972691,-0.327743292,-0.307456315,-0.034473419,2.50975585,-1.439540863,1.731619477,0.330724992,-0.935873634,-0.185294501
-0.761485934,-0.324728817,-0.560972691,-0.327743292,-0.307456315,-0.034473419,2.50975585,-1.439540863,1.731619477,0.330724992,-0.935873634,-0.185294501
-0.761485934,-0.324728817,-0.560972691,-0.327743292,-0.307456315,-0.034473419,2.50975585,-1.439540863,1.731619477,0.330724992,-0.935873634,-0.185294501
-0.761485934,-0.324728817,-0.560972691,-0.327743292,-0.307456315,-0.034473419,2.50975585,-1.439540863,1.731619477,0.330724992,-0.935873634,-0.185294501
-0.761485934,-0.324728817,-0.560972691,-0.327743292,-0.307456315,-0.034473419,2.50975585,-1.439540863,1.731619477,0.330724992,-0.935873634,-0.185294501
-0.761485934,-0.324728817,-0.560972691,-0.327743292,-0.307456315,-0.034473419,2.50975585,-1.439540863,1.731619477,0.330724992,-0.935873634,-0.185294501
-0.761485934,-0.324728817,-0.560972691,-0.327743292,-0.307456315,-0.034473419,2.50975585,-1.439540863,1.731619477,0.330724992,-0.935873634,-0.185294501
-0.761485934,-0.324728817,-0.560972691,-0.327743292,-0.307456315,-0.034473419,2.50975585,-1.439540863,1.731619477,0.330724992,-0.935873634,-0.185294501
-0.761485934,-0.324728817,-0.560972691,-0.327743292,-0.307456315,-0.034473419,2.50975585,-1.439540863,1.731619477,0.330724992,-0.935873634,-0.185294501
-0.761485934,-0.324728817,-0.560972691,-0.327743292,-0.307456315,-0.034473419,2.50975585,-1.439540863,1.731619477,0.330724992,-0.935873634,-0.185294501
-0.81156224,-0.331966937,-0.480796039,-0.235338867,-0.419877589,-0.13112998,2.233354092,-1.486599565,1.412071466,0.338388,-1.035959578,-0.059260118
-0.81156224,-0.331966937,-0.480796039,-0.235338867,-0.419877589,-0.13112998,2.233354092,-1.486599565,1.412071466,0.338388,-1.035959578,-0.059260118
-0.81156224,-0.331966937,-0.480796039,-0.235338867,-0.419877589,-0.13112998,2.233354092,-1.486599565,1.412071466,0.338388,-1.035959578,-0.059260118
-0.81156224,-0.331966937,-0.480796039,-0.235338867,-0.419877589,-0.13112998,2.233354092,-1.486599565,1.412071466,0.338388,-1.035959578,-0.059260118
-0.81156224,-0.331966937,-0.480796039,-0.235338867,-0.419877589,-0.13112998,2.233354092,-1.486599565,1.412071466,0.338388,-1.035959578,-0.059260118
-0.81156224,-0.331966937,-0.480796039,-0.235338867,-0.419877589,-0.13112998,2.233354092,-1.486599565,1.412071466,0.338388,-1.035959578,-0.059260118
-0.81156224,-0.331966937,-0.480796039,-0.235338867,-0.419877589,-0.13112998,2.233354092,-1.486599565,1.412071466,0.338388,-1.035959578,-0.059260118
-0.81156224,-0.331966937,-0.480796039,-0.235338867,-0.419877589,-0.13112998,2.233354092,-1.486599565,1.412071466,0.338388,-1.035959578,-0.059260118
-0.81156224,-0.331966937,-0.480796039,-0.235338867,-0.419877589,-0.13112998,2.233354092,-1.486599565,1.412071466,0.338388,-1.035959578,-0.059260118
-0.81156224,-0.331966937,-0.480796039,-0.235338867,-0.419877589,-0.13112998,2.233354092,-1.486599565,1.412071466,0.338388,-1.035959578,-0.059260118
-0.81156224,-0.331966937,-0.480796039,-0.235338867,-0.419877589,-0.13112998,2.233354092,-1.486599565,1.412071466,0.338388,-1.035959578,-0.059260118
-0.81156224,-0.331966937,-0.480796039,-0.235338867,-0.419877589,-0.13112998,2.233354092,-1.486599565,1.412071466,0.338388,-1.035959578,-0.059260118
-0.81156224,-0.331966937,-0.480796039,-0.235338867,-0.419877589,-0.13112998,2.233354092,-1.486599565,1.412071466,0.338388,-1.035959578,-0.059260118
-0.855808318,-0.32169199,-0.405100554,-0.145957053,-0.331916511,-0.097801864,1.906625628,-1.532363057,1.127999067,0.327515939,-1.12869157,0.039051418
-0.855808318,-0.32169199,-0.405100554,-0.145957053,-0.331916511,-0.097801864,1.906625628,-1.532363057,1.127999067,0.327515939,-1.12869157,0.039051418
-0.855808318,-0.32169199,-0.405100554,-0.145957053,-0.331916511,-0.097801864,1.906625628,-1.532363057,1.127999067,0.327515939,-1.12869157,0.039051418
-0.855808318,-0.32169199,-0.405100554,-0.145957053,-0.331916511,-0.097801864,1.906625628,-1.532363057,1.127999067,0.327515939,-1.12869157,0.039051418
-0.855808318,-0.32169199,-0.405100554,-0.145957053,-0.331916511,-0.097801864,1.906625628,-1.532363057,1.127999067,0.327515939,-1.12869157,0.039051418
-0.855808318,-0.32169199,-0.405100554,-0.145957053,-0.331916511,-0.097801864,1.906625628,-1.532363057,1.127999067,0.327515939,-1.12869157,0.039051418
-0.855808318,-0.32169199,-0.405100554,-0.145957053,-0.331916511,-0.097801864,1.906625628,-1.532363057,1.127999067,0.327515939,-1.12869157,0.039051418
-0.855808318,-0.32169199,-0.405100554,-0.145957053,-0.331916511,-0.097801864,1.906625628,-1.532363057,1.127999067,0.327515939,-1.12869157,0.039051418
-0.855808318,-0.32169199,-0.405100554,-0.145957053,-0.331916511,-0.097801864,1.906625628,-1.532363057,1.127999067,0.327515939,-1.12869157,0.039051418
-0.855808318,-0.32169199,-0.405100554,-0.145957053,-0.331916511,-0.097801864,1.906625628,-1.532363057,1.127999067,0.327515939,-1.12869157,0.039051418
-0.855808318,-0.32169199,-0.405100554,-0.145957053,-0.331916511,-0.097801864,1.906625628,-1.532363057,1.127999067,0.327515939,-1.12869157,0.039051418
-0.855808318,-0.32169199,-0.405100554,-0.145957053,-0.331916511,-0.097801864,1.906625628,-1.532363057,1.127999067,0.327515939,-1.12869157,0.039051418
-0.855808318,-0.32169199,-0.405100554,-0.145957053,-0.331916511,-0.097801864,1.906625628,-1.532363057,1.127999067,0.327515939,-1.12869157,0.039051418
-0.855808318,-0.32169199,-0.405100554,-0.145957053,-0.331916511,-0.097801864,1.906625628,-1.532363057,1.127999067,0.327515939,-1.12869157,0.039051418
-0.855808318,-0.32169199,-0.405100554,-0.145957053,-0.331916511,-0.097801864,1.906625628,-1.532363057,1.127999067,0.327515939,-1.12869157,0.039051418
-0.888839304,-0.322730809,-0.325283796,-0.089992166,-0.198339909,-0.102835536,2.187445164,-1.429427266,0.743108034,0.328613282,-1.21997046,0.138497736
-0.888839304,-0.322730809,-0.325283796,-0.089992166,-0.198339909,-0.102835536,2.187445164,-1.429427266,0.743108034,0.328613282,-1.21997046,0.138497736
-0.888839304,-0.322730809,-0.325283796,-0.089992166,-0.198339909,-0.102835536,2.187445164,-1.429427266,0.743108034,0.328613282,-1.21997046,0.138497736
-0.888839304,-0.322730809,-0.325283796,-0.089992166,-0.198339909,-0.102835536,2.187445164,-1.429427266,0.743108034,0.328613282,-1.21997046,0.138497736
-0.888839304,-0.322730809,-0.325283796,-0.089992166,-0.198339909,-0.102835536,2.187445164,-1.429427266,0.743108034,0.328613282,-1.21997046,0.138497736
-0.888839304,-0.322730809,-0.325283796,-0.089992166,-0.198339909,-0.102835536,2.187445164,-1.429427266,0.743108034,0.328613282,-1.21997046,0.138497736
-0.888839304,-0.322730809,-0.325283796,-0.089992166,-0.198339909,-0.102835536,2.187445164,-1.429427266,0.743108034,0.328613282,-1.21997046,0.138497736
-0.888839304,-0.322730809,-0.325283796,-0.089992166,-0.198339909,-0.102835536,2.187445164,-1.429427266,0.743108034,0.328613282,-1.21997046,0.138497736
-0.888839304,-0.322730809,-0.325283796,-0.089992166,-0.198339909,-0.102835536,2.187445164,-1.429427266,0.743108034,0.328613282,-1.21997046,0.138497736
-0.888839304,-0.322730809,-0.325283796,-0.089992166,-0.198339909,-0.102835536,2.187445164,-1.429427266,0.743108034,0.328613282,-1.21997046,0.138497736
-0.888839304,-0.322730809,-0.325283796,-0.089992166,-0.198339909,-0.102835536,2.187445164,-1.429427266,0.743108034,0.328613282,-1.21997046,0.138497736
-0.888839304,-0.322730809,-0.325283796,-0.089992166,-0.198339909,-0.102835536,2.187445164,-1.429427266,0.743108034,0.328613282,-1.21997046,0.138497736
-0.911538482,-0.322105646,-0.255628228,-0.117570519,-0.200292587,-0.031484962,1.731433511,-1.050528765,0.458696306,0.327952835,-1.297383337,0.223860014
-0.911538482,-0.322105646,-0.255628228,-0.117570519,-0.200292587,-0.031484962,1.731433511,-1.050528765,0.458696306,0.327952835,-1.297383337,0.223860014
-0.911538482,-0.322105646,-0.255628228,-0.117570519,-0.200292587,-0.031484962,1.731433511,-1.050528765,0.458696306,0.327952835,-1.297383337,0.223860014
-0.911538482,-0.322105646,-0.255628228,-0.117570519,-0.200292587,-0.031484962,1.731433511,-1.050528765,0.458696306,0.327952835,-1.297383337,0.223860014
-0.911538482,-0.322105646,-0.255628228,-0.117570519,-0.200292587,-0.031484962,1.731433511,-1.050528765,0.458696306,0.327952835,-1.297383337,0.223860014
-0.911538482,-0.322105646,-0.255628228,-0.117570519,-0.200292587,-0.031484962,1.731433511,-1.050528765,0.458696306,0.327952835,-1.297383337,0.223860014
-0.911538482,-0.322105646,-0.255628228,-0.117570519,-0.200292587,-0.031484962,1.731433511,-1.050528765,0.458696306,0.327952835,-1.297383337,0.223860014
-0.911538482,-0.322105646,-0.255628228,-0.117570519,-0.200292587,-0.031484962,1.731433511,-1.050528765,0.458696306,0.327952835,-1.297383337,0.223860014
-0.911538482,-0.322105646,-0.255628228,-0.117570519,-0.200292587,-0.031484962,1.731433511,-1.050528765,0.458696306,0.327952835,-1.297383337,0.223860014
-0.911538482,-0.322105646,-0.255628228,-0.117570519,-0.200292587,-0.031484962,1.731433511,-1.050528765,0.458696306,0.327952835,-1.297383337,0.223860014
-0.911538482,-0.322105646,-0.255628228,-0.117570519,-0.200292587,-0.031484962,1.731433511,-1.050528765,0.458696306,0.327952835,-1.297383337,0.223860014
-0.922600627,-0.331624299,-0.197062433,-0.0404073,-0.084450632,-0.003701627,2.02140069,-0.72017771,0.111699045,0.338024783,-1.360363934,0.3082427
-0.922600627,-0.331624299,-0.197062433,-0.0404073,-0.084450632,-0.003701627,2.02140069,-0.72017771,0.111699045,0.338024783,-1.360363934,0.3082427
-0.922600627,-0.331624299,-0.197062433,-0.0404073,-0.084450632,-0.003701627,2.02140069,-0.72017771,0.111699045,0.338024783,-1.360363934,0.3082427
-0.922600627,-0.331624299,-0.197062433,-0.0404073,-0.084450632,-0.003701627,2.02140069,-0.72017771,0.111699045,0.338024783,-1.360363934,0.3082427
-0.922600627,-0.331624299,-0.197062433,-0.0404073,-0.084450632,-0.003701627,2.02140069,-0.72017771,0.111699045,0.338024783,-1.360363934,0.3082427
-0.922600627,-0.331624299,-0.197062433,-0.0404073,-0.084450632,-0.003701627,2.02140069,-0.72017771,0.111699045,0.338024783,-1.360363934,0.3082427
-0.922600627,-0.331624299,-0.197062433,-0.0404073,-0.084450632,-0.003701627,2.02140069,-0.72017771,0.111699045,0.338024783,-1.360363934,0.3082427
-0.922600627,-0.331624299,-0.197062433,-0.0404073,-0.084450632,-0.003701627,2.02140069,-0.72017771,0.111699045,0.338024783,-1.360363934,0.3082427
-0.922600627,-0.331624299,-0.197062433,-0.0404073,-0.084450632,-0.003701627,2.02140069,-0.72017771,0.111699045,0.338024783,-1.360363934,0.3082427
-0.922600627,-0.331624299,-0.197062433,-0.0404073,-0.084450632,-0.003701627,2.02140069,-0.72017771,0.111699045,0.338024783,-1.360363934,0.3082427
-0.922600627,-0.331624299,-0.197062433,-0.0404073,-0.084450632,-0.003701627,2.02140069,-0.72017771,0.111699045,0.338024783,-1.360363934,0.3082427
-0.922600627,-0.331624299,-0.197062433,-0.0404073,-0.084450632,-0.003701627,2.02140069,-0.72017771,0.111699045,0.338024783,-1.360363934,0.3082427
-0.928793728,-0.333438158,-0.161744758,-0.080860257,-0.308375269,-0.098101437,-0.227024093,-0.582258403,0.181955218,0.339948093,-1.398380396,0.349051604
-0.928793728,-0.333438158,-0.161744758,-0.080860257,-0.308375269,-0.098101437,-0.227024093,-0.582258403,0.181955218,0.339948093,-1.398380396,0.349051604
-0.928793728,-0.333438158,-0.161744758,-0.080860257,-0.308375269,-0.098101437,-0.227024093,-0.582258403,0.181955218,0.339948093,-1.398380396,0.349051604
-0.928793728,-0.333438158,-0.161744758,-0.080860257,-0.308375269,-0.098101437,-0.227024093,-0.582258403,0.181955218,0.339948093,-1.398380396,0.349051604
-0.928793728,-0.333438158,-0.161744758,-0.080860257,-0.308375269,-0.098101437,-0.227024093,-0.582258403,0.181955218,0.339948093,-1.398380396,0.349051604
-0.928793728,-0.333438158,-0.161744758,-0.080860257,-0.308375269,-0.098101437,-0.227024093,-0.582258403,0.181955218,0.339948093,-1.398380396,0.349051604
-0.928793728,-0.333438158,-0.161744758,-0.080860257,-0.308375269,-0.098101437,-0.227024093,-0.582258403,0.181955218,0.339948093,-1.398380396,0.349051604
-0.928793728,-0.333438158,-0.161744758,-0.080860257,-0.308375269,-0.098101437,-0.227024093,-0.582258403,0.181955218,0.339948093,-1.398380396,0.349051604
-0.928793728,-0.333438158,-0.161744758,-0.080860257,-0.308375269,-0.098101437,-0.227024093,-0.582258403,0.181955218,0.339948093,-1.398380396,0.349051604
-0.928793728,-0.333438158,-0.161744758,-0.080860257,-0.308375269,-0.098101437,-0.227024093,-0.582258403,0.181955218,0.339948093,-1.398380396,0.349051604
-0.928793728,-0.333438158,-0.161744758,-0.080860257,-0.308375269,-0.098101437,-0.227024093,-0.582258403,0.181955218,0.339948093,-1.398380396,0.349051604
-0.928793728,-0.333438158,-0.161744758,-0.080860257,-0.308375269,-0.098101437,-0.227024093,-0.582258403,0.181955218,0.339948093,-1.398380396,0.349051604
-0.928793728,-0.333438158,-0.161744758,-0.080860257,-0.308375269,-0.098101437,-0.227024093,-0.582258403,0.181955218,0.339948093,-1.398380396,0.349051604
-0.932937086,-0.329137653,-0.145934269,-0.101894021,-0.007423818,-0.124547362,0.348047823,-0.329629034,-0.065992974,0.335390189,-1.4156292,0.334584612
-0.932937086,-0.329137653,-0.145934269,-0.101894021,-0.007423818,-0.124547362,0.348047823,-0.329629034,-0.065992974,0.335390189,-1.4156292,0.334584612
-0.932937086,-0.329137653,-0.145934269,-0.101894021,-0.007423818,-0.124547362,0.348047823,-0.329629034,-0.065992974,0.335390189,-1.4156292,0.334584612
-0.932937086,-0.329137653,-0.145934269,-0.101894021,-0.007423818,-0.124547362,0.348047823,-0.329629034,-0.065992974,0.335390189,-1.4156292,0.334584612
-0.932937086,-0.329137653,-0.145934269,-0.101894021,-0.007423818,-0.124547362,0.348047823,-0.329629034,-0.065992974,0.335390189,-1.4156292,0.334584612
-0.932937086,-0.329137653,-0.145934269,-0.101894021,-0.007423818,-0.124547362,0.348047823,-0.329629034,-0.065992974,0.335390189,-1.4156292,0.334584612
-0.932937086,-0.329137653,-0.145934269,-0.101894021,-0.007423818,-0.124547362,0.348047823,-0.329629034,-0.065992974,0.335390189,-1.4156292,0.334584612
-0.932937086,-0.329137653,-0.145934269,-0.101894021,-0.007423818,-0.124547362,0.348047823,-0.329629034,-0.065992974,0.335390189,-1.4156292,0.334584612
-0.932937086,-0.329137653,-0.145934269,-0.101894021,-0.007423818,-0.124547362,0.348047823,-0.329629034,-0.065992974,0.335390189,-1.4156292,0.334584612
-0.932937086,-0.329137653,-0.145934269,-0.101894021,-0.007423818,-0.124547362,0.348047823,-0.329629034,-0.065992974,0.335390189,-1.4156292,0.334584612
-0.932937086,-0.329137653,-0.145934269,-0.101894021,-0.007423818,-0.124547362,0.348047823,-0.329629034,-0.065992974,0.335390189,-1.4156292,0.334584612
-0.932937086,-0.329137653,-0.145934269,-0.101894021,-0.007423818,-0.124547362,0.348047823,-0.329629034,-0.065992974,0.335390189,-1.4156292,0.334584612
-0.929956615,-0.341186613,-0.137013257,-0.132523239,0.064851701,-0.178848207,0.422895521,0.256788969,-0.218346983,0.348178953,-1.424515759,0.360589321
-0.929956615,-0.341186613,-0.137013257,-0.132523239,0.064851701,-0.178848207,0.422895521,0.256788969,-0.218346983,0.348178953,-1.424515759,0.360589321
-0.929956615,-0.341186613,-0.137013257,-0.132523239,0.064851701,-0.178848207,0.422895521,0.256788969,-0.218346983,0.348178953,-1.424515759,0.360589321
-0.929956615,-0.341186613,-0.137013257,-0.132523239,0.064851701,-0.178848207,0.422895521,0.256788969,-0.218346983,0.348178953,-1.424515759,0.360589321
-0.929956615,-0.341186613,-0.137013257,-0.132523239,0.064851701,-0.178848207,0.422895521,0.256788969,-0.218346983,0.348178953,-1.424515759,0.360589321
-0.929956615,-0.341186613,-0.137013257,-0.132523239,0.064851701,-0.178848207,0.422895521,0.256788969,-0.218346983,0.348178953,-1.424515759,0.360589321
-0.929956615,-0.341186613,-0.137013257,-0.132523239,0.064851701,-0.178848207,0.422895521,0.256788969,-0.218346983,0.348178953,-1.424515759,0.360589321
-0.929956615,-0.341186613,-0.137013257,-0.132523239,0.064851701,-0.178848207,0.422895521,0.256788969,-0.218346983,0.348178953,-1.424515759,0.360589321
-0.929956615,-0.341186613,-0.137013257,-0.132523239,0.064851701,-0.178848207,0.422895521,0.256788969,-0.218346983,0.348178953,-1.424515759,0.360589321
-0.929956615,-0.341186613,-0.137013257,-0.132523239,0.064851701,-0.178848207,0.422895521,0.256788969,-0.218346983,0.348178953,-1.424515759,0.360589321
-0.929956615,-0.341186613,-0.137013257,-0.132523239,0.064851701,-0.178848207,0.422895521,0.256788969,-0.218346983,0.348178953,-1.424515759,0.360589321
-0.929956615,-0.341186613,-0.137013257,-0.132523239,0.064851701,-0.178848207,0.422895521,0.256788969,-0.218346983,0.348178953,-1.424515759,0.360589321
-0.929956615,-0.341186613,-0.137013257,-0.132523239,0.064851701,-0.178848207,0.422895521,0.256788969,-0.218346983,0.348178953,-1.424515759,0.360589321
-0.929956615,-0.341186613,-0.137013257,-0.132523239,0.064851701,-0.178848207,0.422895521,0.256788969,-0.218346983,0.348178953,-1.424515759,0.360589321
-0.929956615,-0.341186613,-0.137013257,-0.132523239,0.064851701,-0.178848207,0.422895521,0.256788969,-0.218346983,0.348178953,-1.424515759,0.360589321
-0.926812649,-0.344787747,-0.148793995,-0.029740751,0.019716293,-0.159438014,-0.418630183,0.16906786,0.005123016,0.352012657,-1.41161091,0.354071724
-0.926812649,-0.344787747,-0.148793995,-0.029740751,0.019716293,-0.159438014,-0.418630183,0.16906786,0.005123016,0.352012657,-1.41161091,0.354071724
-0.926812649,-0.344787747,-0.148793995,-0.029740751,0.019716293,-0.159438014,-0.418630183,0.16906786,0.005123016,0.352012657,-1.41161091,0.354071724
-0.926812649,-0.344787747,-0.148793995,-0.029740751,0.019716293,-0.159438014,-0.418630183,0.16906786,0.005123016,0.352012657,-1.41161091,0.354071724
-0.926812649,-0.344787747,-0.148793995,-0.029740751,0.019716293,-0.159438014,-0.418630183,0.16906786,0.005123016,0.352012657,-1.41161091,0.354071724
-0.926812649,-0.344787747,-0.148793995,-0.029740751,0.019716293,-0.159438014,-0.418630183,0.16906786,0.005123016,0.352012657,-1.41161091,0.354071724
-0.926812649,-0.344787747,-0.148793995,-0.029740751,0.019716293,-0.159438014,-0.418630183,0.16906786,0.005123016,0.352012657,-1.41161091,0.354071724
-0.926812649,-0.344787747,-0.148793995,-0.029740751,0.019716293,-0.159438014,-0.418630183,0.16906786,0.005123016,0.352012657,-1.41161091,0.354071724
-0.926812649,-0.344787747,-0.148793995,-0.029740751,0.019716293,-0.159438014,-0.418630183,0.16906786,0.005123016,0.352012657,-1.41161091,0.354071724
-0.926812649,-0.344787747,-0.148793995,-0.029740751,0.019716293,-0.159438014,-0.418630183,0.16906786,0.005123016,0.352012657,-1.41161091,0.354071724
-0.926812649,-0.344787747,-0.148793995,-0.029740751,0.019716293,-0.159438014,-0.418630183,0.16906786,0.005123016,0.352012657,-1.41161091,0.354071724
-0.926812649,-0.344787747,-0.148793995,-0.029740751,0.019716293,-0.159438014,-0.418630183,0.16906786,0.005123016,0.352012657,-1.41161091,0.354071724
-0.926733971,-0.342019349,-0.155521363,0.002224028,-0.000233501,-0.015045822,-0.474706501,-0.098106317,0.052318119,0.349065019,-1.404528986,0.33782508
-0.926733971,-0.342019349,-0.155521363,0.002224028,-0.000233501,-0.015045822,-0.474706501,-0.098106317,0.052318119,0.349065019,-1.404528986,0.33782508
-0.926733971,-0.342019349,-0.155521363,0.002224028,-0.000233501,-0.015045822,-0.474706501,-0.098106317,0.052318119,0.349065019,-1.404528986,0.33782508
-0.926733971,-0.342019349,-0.155521363,0.002224028,-0.000233501,-0.015045822,-0.474706501,-0.098106317,0.052318119,0.349065019,-1.404528986,0.33782508
-0.926733971,-0.342019349,-0.155521363,0.002224028,-0.000233501,-0.015045822,-0.474706501,-0.098106317,0.052318119,0.349065019,-1.404528986,0.33782508
-0.926733971,-0.342019349,-0.155521363,0.002224028,-0.000233501,-0.015045822,-0.474706501,-0.098106317,0.052318119,0.349065019,-1.404528986,0.33782508
-0.926733971,-0.342019349,-0.155521363,0.002224028,-0.000233501,-0.015045822,-0.474706501,-0.098106317,0.052318119,0.349065019,-1.404528986,0.33782508
-0.926733971,-0.342019349,-0.155521363,0.002224028,-0.000233501,-0.015045822,-0.474706501,-0.098106317,0.052318119,0.349065019,-1.404528986,0.33782508
-0.926733971,-0.342019349,-0.155521363,0.002224028,-0.000233501,-0.015045822,-0.474706501,-0.098106317,0.052318119,0.349065019,-1.404528986,0.33782508
-0.928549945,-0.334631741,-0.160675779,0.008480072,-0.020774305,0.087673664,-0.639339328,-0.057085052,0.074629761,0.341214429,-1.399453585,0.311722704
-0.928549945,-0.334631741,-0.160675779,0.008480072,-0.020774305,0.087673664,-0.639339328,-0.057085052,0.074629761,0.341214429,-1.399453585,0.311722704
-0.928549945,-0.334631741,-0.160675779,0.008480072,-0.020774305,0.087673664,-0.639339328,-0.057085052,0.074629761,0.341214429,-1.399453585,0.311722704
-0.928549945,-0.334631741,-0.160675779,0.008480072,-0.020774305,0.087673664,-0.639339328,-0.057085052,0.074629761,0.341214429,-1.399453585,0.311722704
-0.928549945,-0.334631741,-0.160675779,0.008480072,-0.020774305,0.087673664,-0.639339328,-0.057085052,0.074629761,0.341214429,-1.399453585,0.311722704
-0.928549945,-0.334631741,-0.160675779,0.008480072,-0.020774305,0.087673664,-0.639339328,-0.057085052,0.074629761,0.341214429,-1.399453585,0.311722704
-0.928549945,-0.334631741,-0.160675779,0.008480072,-0.020774305,0.087673664,-0.639339328,-0.057085052,0.074629761,0.341214429,-1.399453585,0.311722704
-0.928549945,-0.334631741,-0.160675779,0.008480072,-0.020774305,0.087673664,-0.639339328,-0.057085052,0.074629761,0.341214429,-1.399453585,0.311722704
-0.928549945,-0.334631741,-0.160675779,0.008480072,-0.020774305,0.087673664,-0.639339328,-0.057085052,0.074629761,0.341214429,-1.399453585,0.311722704
-0.928549945,-0.334631741,-0.160675779,0.008480072,-0.020774305,0.087673664,-0.639339328,-0.057085052,0.074629761,0.341214429,-1.399453585,0.311722704
-0.928549945,-0.334631741,-0.160675779,0.008480072,-0.020774305,0.087673664,-0.639339328,-0.057085052,0.074629761,0.341214429,-1.399453585,0.311722704
-0.928549945,-0.334631741,-0.160675779,0.008480072,-0.020774305,0.087673664,-0.639339328,-0.057085052,0.074629761,0.341214429,-1.399453585,0.311722704
-0.928970635,-0.329944044,-0.167781755,0.022633731,-0.038752437,0.061164379,-0.52351898,0.026735548,-0.001383513,0.336244298,-1.392112203,0.2872774
-0.928970635,-0.329944044,-0.167781755,0.022633731,-0.038752437,0.061164379,-0.52351898,0.026735548,-0.001383513,0.336244298,-1.392112203,0.2872774
-0.928970635,-0.329944044,-0.167781755,0.022633731,-0.038752437,0.061164379,-0.52351898,0.026735548,-0.001383513,0.336244298,-1.392112203,0.2872774
-0.928970635,-0.329944044,-0.167781755,0.022633731,-0.038752437,0.061164379,-0.52351898,0.026735548,-0.001383513,0.336244298,-1.392112203,0.2872774
-0.928970635,-0.329944044,-0.167781755,0.022633731,-0.038752437,0.061164379,-0.52351898,0.026735548,-0.001383513,0.336244298,-1.392112203,0.2872774
-0.928970635,-0.329944044,-0.167781755,0.022633731,-0.038752437,0.061164379,-0.52351898,0.026735548,-0.001383513,0.336244298,-1.392112203,0.2872774
-0.928322732,-0.332033336,-0.167245448,-0.008318126,0.000339448,0.033757329,-0.41420576,0.056401342,0.004042678,0.338458393,-1.392549642,0.272406841
-0.928322732,-0.332033336,-0.167245448,-0.008318126,0.000339448,0.033757329,-0.41420576,0.056401342,0.004042678,0.338458393,-1.392549642,0.272406841
-0.928322732,-0.332033336,-0.167245448,-0.008318126,0.000339448,0.033757329,-0.41420576,0.056401342,0.004042678,0.338458393,-1.392549642,0.272406841
-0.928322732,-0.332033336,-0.167245448,-0.008318126,0.000339448,0.033757329,-0.41420576,0.056401342,0.004042678,0.338458393,-1.392549642,0.272406841
-0.928322732,-0.332033336,-0.167245448,-0.008318126,0.000339448,0.033757329,-0.41420576,0.056401342,0.004042678,0.338458393,-1.392549642,0.272406841
-0.928322732,-0.332033336,-0.167245448,-0.008318126,0.000339448,0.033757329,-0.41420576,0.056401342,0.004042678,0.338458393,-1.392549642,0.272406841
-0.928578913,-0.330686122,-0.168487549,-0.007817566,-0.022522599,-0.008015215,-0.58464241,0.113443471,0.008224428,0.337030519,-1.39130247,0.252005602
-0.928578913,-0.330686122,-0.168487549,-0.007817566,-0.022522599,-0.008015215,-0.58464241,0.113443471,0.008224428,0.337030519,-1.39130247,0.252005602
-0.928578913,-0.330686122,-0.168487549,-0.007817566,-0.022522599,-0.008015215,-0.58464241,0.113443471,0.008224428,0.337030519,-1.39130247,0.252005602
-0.928578913,-0.330686122,-0.168487549,-0.007817566,-0.022522599,-0.008015215,-0.58464241,0.113443471,0.008224428,0.337030519,-1.39130247,0.252005602
-0.928578913,-0.330686122,-0.168487549,-0.007817566,-0.022522599,-0.008015215,-0.58464241,0.113443471,0.008224428,0.337030519,-1.39130247,0.252005602
-0.928578913,-0.330686122,-0.168487549,-0.007817566,-0.022522599,-0.008015215,-0.58464241,0.113443471,0.008224428,0.337030519,-1.39130247,0.252005602
-0.927915394,-0.330686301,-0.172103956,-0.004834056,0.112609446,-0.008167863,-0.197711349,0.061299685,-0.064366475,0.337030695,-1.387406522,0.238149898
-0.927915394,-0.330686301,-0.172103956,-0.004834056,0.112609446,-0.008167863,-0.197711349,0.061299685,-0.064366475,0.337030695,-1.387406522,0.238149898
-0.927915394,-0.330686301,-0.172103956,-0.004834056,0.112609446,-0.008167863,-0.197711349,0.061299685,-0.064366475,0.337030695,-1.387406522,0.238149898
-0.927915394,-0.330686301,-0.172103956,-0.004834056,0.112609446,-0.008167863,-0.197711349,0.061299685,-0.064366475,0.337030695,-1.387406522,0.238149898
-0.927915394,-0.330686301,-0.172103956,-0.004834056,0.112609446,-0.008167863,-0.197711349,0.061299685,-0.064366475,0.337030695,-1.387406522,0.238149898
-0.927915394,-0.330686301,-0.172103956,-0.004834056,0.112609446,-0.008167863,-0.197711349,0.061299685,-0.064366475,0.337030695,-1.387406522,0.238149898
-0.927915394,-0.330686301,-0.172103956,-0.004834056,0.112609446,-0.008167863,-0.197711349,0.061299685,-0.064366475,0.337030695,-1.387406522,0.238149898
-0.927915394,-0.330686301,-0.172103956,-0.004834056,0.112609446,-0.008167863,-0.197711349,0.061299685,-0.064366475,0.337030695,-1.387406522,0.238149898
-0.926550746,-0.331175059,-0.178400666,-0.011478424,0.027771026,0.042379498,-0.436025381,0.107911177,-0.033118006,0.337548641,-1.380581345,0.222394212
-0.926550746,-0.331175059,-0.178400666,-0.011478424,0.027771026,0.042379498,-0.436025381,0.107911177,-0.033118006,0.337548641,-1.380581345,0.222394212
-0.926550746,-0.331175059,-0.178400666,-0.011478424,0.027771026,0.042379498,-0.436025381,0.107911177,-0.033118006,0.337548641,-1.380581345,0.222394212
-0.926550746,-0.331175059,-0.178400666,-0.011478424,0.027771026,0.042379498,-0.436025381,0.107911177,-0.033118006,0.337548641,-1.380581345,0.222394212
-0.926550746,-0.331175059,-0.178400666,-0.011478424,0.027771026,0.042379498,-0.436025381,0.107911177,-0.033118006,0.337548641,-1.380581345,0.222394212
-0.926550746,-0.331175059,-0.178400666,-0.011478424,0.027771026,0.042379498,-0.436025381,0.107911177,-0.033118006,0.337548641,-1.380581345,0.222394212
-0.926550746,-0.331175059,-0.178400666,-0.011478424,0.027771026,0.042379498,-0.436025381,0.107911177,-0.033118006,0.337548641,-1.380581345,0.222394212
-0.926550746,-0.331175059,-0.178400666,-0.011478424,0.027771026,0.042379498,-0.436025381,0.107911177,-0.033118006,0.337548641,-1.380581345,0.222394212
-0.926550746,-0.331175059,-0.178400666,-0.011478424,0.027771026,0.042379498,-0.436025381,0.107911177,-0.033118006,0.337548641,-1.380581345,0.222394212
-0.926550746,-0.331175059,-0.178400666,-0.011478424,0.027771026,0.042379498,-0.436025381,0.107911177,-0.033118006,0.337548641,-1.380581345,0.222394212
-0.926550746,-0.331175059,-0.178400666,-0.011478424,0.027771026,0.042379498,-0.436025381,0.107911177,-0.033118006,0.337548641,-1.380581345,0.222394212
-0.926550746,-0.331175059,-0.178400666,-0.011478424,0.027771026,0.042379498,-0.436025381,0.107911177,-0.033118006,0.337548641,-1.380581345,0.222394212
-0.928402364,-0.324022353,-0.181875691,0.061494112,0.137592077,0.05943507,0.213098601,-0.089702249,0.015463858,0.329978148,-1.377344442,0.215494007
-0.928402364,-0.324022353,-0.181875691,0.061494112,0.137592077,0.05943507,0.213098601,-0.089702249,0.015463858,0.329978148,-1.377344442,0.215494007
-0.928402364,-0.324022353,-0.181875691,0.061494112,0.137592077,0.05943507,0.213098601,-0.089702249,0.015463858,0.329978148,-1.377344442,0.215494007
-0.928402364,-0.324022353,-0.181875691,0.061494112,0.137592077,0.05943507,0.213098601,-0.089702249,0.015463858,0.329978148,-1.377344442,0.215494007
-0.928402364,-0.324022353,-0.181875691,0.061494112,0.137592077,0.05943507,0.213098601,-0.089702249,0.015463858,0.329978148,-1.377344442,0.215494007
-0.928402364,-0.324022353,-0.181875691,0.061494112,0.137592077,0.05943507,0.213098601,-0.089702249,0.015463858,0.329978148,-1.377344442,0.215494007
-0.929223537,-0.325914413,-0.174136028,-0.037599444,-0.006618828,0.026076198,0.014517874,0.027560774,-0.065983333,0.331978787,-1.385545468,0.227556201
-0.929223537,-0.325914413,-0.174136028,-0.037599444,-0.006618828,0.026076198,0.014517874,0.027560774,-0.065983333,0.331978787,-1.385545468,0.227556201
-0.929223537,-0.325914413,-0.174136028,-0.037599444,-0.006618828,0.026076198,0.014517874,0.027560774,-0.065983333,0.331978787,-1.385545468,0.227556201
-0.929223537,-0.325914413,-0.174136028,-0.037599444,-0.006618828,0.026076198,0.014517874,0.027560774,-0.065983333,0.331978787,-1.385545468,0.227556201
-0.929223537,-0.325914413,-0.174136028,-0.037599444,-0.006618828,0.026076198,0.014517874,0.027560774,-0.065983333,0.331978787,-1.385545468,0.227556201
-0.929808855,-0.322144151,-0.177985176,0.019520342,-0.105374873,-0.041822135,-0.282788455,0.063753739,-0.08737389,0.327993492,-1.381663002,0.216168281
-0.929808855,-0.322144151,-0.177985176,0.019520342,-0.105374873,-0.041822135,-0.282788455,0.063753739,-0.08737389,0.327993492,-1.381663002,0.216168281