gravityX,gravityY,gravityZ,accelX,accelY,accelZ,rotRateX,rotRatY,rotRateZ,attPitch,attRoll,attYaw
-0.95026207,-0.22943075,-0.210626602,-0.030221939,-0.048050344,-0.021062851,0.056048963,0.062862433,0.02382496,0.231492799,-1.352671733,0.196400025
-0.949755132,-0.228664711,-0.213723883,-0.0127846,-0.034290016,-0.051366985,-0.145758942,0.077588558,-0.007236661,0.230705836,-1.349452849,0.194442503
-0.949755132,-0.228664711,-0.213723883,-0.0127846,-0.034290016,-0.051366985,-0.145758942,0.077588558,-0.007236661,0.230705836,-1.349452849,0.194442503
-0.949755132,-0.228664711,-0.213723883,-0.0127846,-0.034290016,-0.051366985,-0.145758942,0.077588558,-0.007236661,0.230705836,-1.349452849,0.194442503
-0.949755132,-0.228664711,-0.213723883,-0.0127846,-0.034290016,-0.051366985,-0.145758942,0.077588558,-0.007236661,0.230705836,-1.349452849,0.194442503
-0.949755132,-0.228664711,-0.213723883,-0.0127846,-0.034290016,-0.051366985,-0.145758942,0.077588558,-0.007236661,0.230705836,-1.349452849,0.194442503
-0.949755132,-0.228664711,-0.213723883,-0.0127846,-0.034290016,-0.051366985,-0.145758942,0.077588558,-0.007236661,0.230705836,-1.349452849,0.194442503
-0.949755132,-0.228664711,-0.213723883,-0.0127846,-0.034290016,-0.051366985,-0.145758942,0.077588558,-0.007236661,0.230705836,-1.349452849,0.194442503
-0.949755132,-0.228664711,-0.213723883,-0.0127846,-0.034290016,-0.051366985,-0.145758942,0.077588558,-0.007236661,0.230705836,-1.349452849,0.194442503
-0.949755132,-0.228664711,-0.213723883,-0.0127846,-0.034290016,-0.051366985,-0.145758942,0.077588558,-0.007236661,0.230705836,-1.349452849,0.194442503
-0.949755132,-0.228664711,-0.213723883,-0.0127846,-0.034290016,-0.051366985,-0.145758942,0.077588558,-0.007236661,0.230705836,-1.349452849,0.194442503
-0.949755132,-0.228664711,-0.213723883,-0.0127846,-0.034290016,-0.051366985,-0.145758942,0.077588558,-0.007236661,0.230705836,-1.349452849,0.194442503
-0.949755132,-0.228664711,-0.213723883,-0.0127846,-0.034290016,-0.051366985,-0.145758942,0.077588558,-0.007236661,0.230705836,-1.349452849,0.194442503
-0.949755132,-0.228664711,-0.213723883,-0.0127846,-0.034290016,-0.051366985,-0.145758942,0.077588558,-0.007236661,0.230705836,-1.349452849,0.194442503
-0.949755132,-0.228664711,-0.213723883,-0.0127846,-0.034290016,-0.051366985,-0.145758942,0.077588558,-0.007236661,0.230705836,-1.349452849,0.194442503
-0.941720426,-0.25266701,-0.222085595,0.019815028,0.000149339,-0.026358128,-0.293771714,0.089298502,-0.036382828,0.255435711,-1.339198274,0.183959374
-0.941720426,-0.25266701,-0.222085595,0.019815028,0.000149339,-0.026358128,-0.293771714,0.089298502,-0.036382828,0.255435711,-1.339198274,0.183959374
-0.941720426,-0.25266701,-0.222085595,0.019815028,0.000149339,-0.026358128,-0.293771714,0.089298502,-0.036382828,0.255435711,-1.339198274,0.183959374
-0.941720426,-0.25266701,-0.222085595,0.019815028,0.000149339,-0.026358128,-0.293771714,0.089298502,-0.036382828,0.255435711,-1.339198274,0.183959374
-0.941720426,-0.25266701,-0.222085595,0.019815028,0.000149339,-0.026358128,-0.293771714,0.089298502,-0.036382828,0.255435711,-1.339198274,0.183959374
-0.941720426,-0.25266701,-0.222085595,0.019815028,0.000149339,-0.026358128,-0.293771714,0.089298502,-0.036382828,0.255435711,-1.339198274,0.183959374
-0.941720426,-0.25266701,-0.222085595,0.019815028,0.000149339,-0.026358128,-0.293771714,0.089298502,-0.036382828,0.255435711,-1.339198274,0.183959374
-0.941720426,-0.25266701,-0.222085595,0.019815028,0.000149339,-0.026358128,-0.293771714,0.089298502,-0.036382828,0.255435711,-1.339198274,0.183959374
-0.941720426,-0.25266701,-0.222085595,0.019815028,0.000149339,-0.026358128,-0.293771714,0.089298502,-0.036382828,0.255435711,-1.339198274,0.183959374
-0.941720426,-0.25266701,-0.222085595,0.019815028,0.000149339,-0.026358128,-0.293771714,0.089298502,-0.036382828,0.255435711,-1.339198274,0.183959374
-0.941720426,-0.25266701,-0.222085595,0.019815028,0.000149339,-0.026358128,-0.293771714,0.089298502,-0.036382828,0.255435711,-1.339198274,0.183959374
-0.941720426,-0.25266701,-0.222085595,0.019815028,0.000149339,-0.026358128,-0.293771714,0.089298502,-0.036382828,0.255435711,-1.339198274,0.183959374
-0.941720426,-0.25266701,-0.222085595,0.019815028,0.000149339,-0.026358128,-0.293771714,0.089298502,-0.036382828,0.255435711,-1.339198274,0.183959374
-0.935722768,-0.258838356,-0.239636853,0.033195913,0.030383736,0.031491756,-0.020742366,-0.04600003,-0.050789144,0.261819366,-1.320086534,0.171612687
-0.935722768,-0.258838356,-0.239636853,0.033195913,0.030383736,0.031491756,-0.020742366,-0.04600003,-0.050789144,0.261819366,-1.320086534,0.171612687
-0.935722768,-0.258838356,-0.239636853,0.033195913,0.030383736,0.031491756,-0.020742366,-0.04600003,-0.050789144,0.261819366,-1.320086534,0.171612687
-0.935722768,-0.258838356,-0.239636853,0.033195913,0.030383736,0.031491756,-0.020742366,-0.04600003,-0.050789144,0.261819366,-1.320086534,0.171612687
-0.935722768,-0.258838356,-0.239636853,0.033195913,0.030383736,0.031491756,-0.020742366,-0.04600003,-0.050789144,0.261819366,-1.320086534,0.171612687
-0.935722768,-0.258838356,-0.239636853,0.033195913,0.030383736,0.031491756,-0.020742366,-0.04600003,-0.050789144,0.261819366,-1.320086534,0.171612687
-0.935722768,-0.258838356,-0.239636853,0.033195913,0.030383736,0.031491756,-0.020742366,-0.04600003,-0.050789144,0.261819366,-1.320086534,0.171612687
-0.935722768,-0.258838356,-0.239636853,0.033195913,0.030383736,0.031491756,-0.020742366,-0.04600003,-0.050789144,0.261819366,-1.320086534,0.171612687
-0.935722768,-0.258838356,-0.239636853,0.033195913,0.030383736,0.031491756,-0.020742366,-0.04600003,-0.050789144,0.261819366,-1.320086534,0.171612687
-0.935722768,-0.258838356,-0.239636853,0.033195913,0.030383736,0.031491756,-0.020742366,-0.04600003,-0.050789144,0.261819366,-1.320086534,0.171612687
-0.935722768,-0.258838356,-0.239636853,0.033195913,0.030383736,0.031491756,-0.020742366,-0.04600003,-0.050789144,0.261819366,-1.320086534,0.171612687
-0.935722768,-0.258838356,-0.239636853,0.033195913,0.030383736,0.031491756,-0.020742366,-0.04600003,-0.050789144,0.261819366,-1.320086534,0.171612687
-0.935722768,-0.258838356,-0.239636853,0.033195913,0.030383736,0.031491756,-0.020742366,-0.04600003,-0.050789144,0.261819366,-1.320086534,0.171612687
-0.935722768,-0.258838356,-0.239636853,0.033195913,0.030383736,0.031491756,-0.020742366,-0.04600003,-0.050789144,0.261819366,-1.320086534,0.171612687
-0.935722768,-0.258838356,-0.239636853,0.033195913,0.030383736,0.031491756,-0.020742366,-0.04600003,-0.050789144,0.261819366,-1.320086534,0.171612687
-0.935722768,-0.258838356,-0.239636853,0.033195913,0.030383736,0.031491756,-0.020742366,-0.04600003,-0.050789144,0.261819366,-1.320086534,0.171612687
-0.934307575,-0.264477611,-0.239000142,0.024548292,0.03451243,0.037950218,0.477775693,-0.233313128,-0.070567004,0.267662214,-1.320362062,0.178876774
-0.934307575,-0.264477611,-0.239000142,0.024548292,0.03451243,0.037950218,0.477775693,-0.233313128,-0.070567004,0.267662214,-1.320362062,0.178876774
-0.934307575,-0.264477611,-0.239000142,0.024548292,0.03451243,0.037950218,0.477775693,-0.233313128,-0.070567004,0.267662214,-1.320362062,0.178876774
-0.934307575,-0.264477611,-0.239000142,0.024548292,0.03451243,0.037950218,0.477775693,-0.233313128,-0.070567004,0.267662214,-1.320362062,0.178876774
-0.934307575,-0.264477611,-0.239000142,0.024548292,0.03451243,0.037950218,0.477775693,-0.233313128,-0.070567004,0.267662214,-1.320362062,0.178876774
-0.934307575,-0.264477611,-0.239000142,0.024548292,0.03451243,0.037950218,0.477775693,-0.233313128,-0.070567004,0.267662214,-1.320362062,0.178876774
-0.934307575,-0.264477611,-0.239000142,0.024548292,0.03451243,0.037950218,0.477775693,-0.233313128,-0.070567004,0.267662214,-1.320362062,0.178876774
-0.934307575,-0.264477611,-0.239000142,0.024548292,0.03451243,0.037950218,0.477775693,-0.233313128,-0.070567004,0.267662214,-1.320362062,0.178876774
-0.934307575,-0.264477611,-0.239000142,0.024548292,0.03451243,0.037950218,0.477775693,-0.233313128,-0.070567004,0.267662214,-1.320362062,0.178876774
-0.934307575,-0.264477611,-0.239000142,0.024548292,0.03451243,0.037950218,0.477775693,-0.233313128,-0.070567004,0.267662214,-1.320362062,0.178876774
-0.934307575,-0.264477611,-0.239000142,0.024548292,0.03451243,0.037950218,0.477775693,-0.233313128,-0.070567004,0.267662214,-1.320362062,0.178876774
-0.934307575,-0.264477611,-0.239000142,0.024548292,0.03451243,0.037950218,0.477775693,-0.233313128,-0.070567004,0.267662214,-1.320362062,0.178876774
-0.934307575,-0.264477611,-0.239000142,0.024548292,0.03451243,0.037950218,0.477775693,-0.233313128,-0.070567004,0.267662214,-1.320362062,0.178876774
-0.934307575,-0.264477611,-0.239000142,0.024548292,0.03451243,0.037950218,0.477775693,-0.233313128,-0.070567004,0.267662214,-1.320362062,0.178876774
-0.934307575,-0.264477611,-0.239000142,0.024548292,0.03451243,0.037950218,0.477775693,-0.233313128,-0.070567004,0.267662214,-1.320362062,0.178876774
-0.934307575,-0.264477611,-0.239000142,0.024548292,0.03451243,0.037950218,0.477775693,-0.233313128,-0.070567004,0.267662214,-1.320362062,0.178876774
-0.934307575,-0.264477611,-0.239000142,0.024548292,0.03451243,0.037950218,0.477775693,-0.233313128,-0.070567004,0.267662214,-1.320362062,0.178876774
-0.934307575,-0.264477611,-0.239000142,0.024548292,0.03451243,0.037950218,0.477775693,-0.233313128,-0.070567004,0.267662214,-1.320362062,0.178876774
-0.937727511,-0.265857875,-0.223576903,-0.002884626,0.029209495,0.030613661,0.449101865,-0.355643392,-0.132900372,0.269093709,-1.336741881,0.198249582
-0.937727511,-0.265857875,-0.223576903,-0.002884626,0.029209495,0.030613661,0.449101865,-0.355643392,-0.132900372,0.269093709,-1.336741881,0.198249582
-0.937727511,-0.265857875,-0.223576903,-0.002884626,0.029209495,0.030613661,0.449101865,-0.355643392,-0.132900372,0.269093709,-1.336741881,0.198249582
-0.937727511,-0.265857875,-0.223576903,-0.002884626,0.029209495,0.030613661,0.449101865,-0.355643392,-0.132900372,0.269093709,-1.336741881,0.198249582
-0.937727511,-0.265857875,-0.223576903,-0.002884626,0.029209495,0.030613661,0.449101865,-0.355643392,-0.132900372,0.269093709,-1.336741881,0.198249582
-0.937727511,-0.265857875,-0.223576903,-0.002884626,0.029209495,0.030613661,0.449101865,-0.355643392,-0.132900372,0.269093709,-1.336741881,0.198249582
-0.937727511,-0.265857875,-0.223576903,-0.002884626,0.029209495,0.030613661,0.449101865,-0.355643392,-0.132900372,0.269093709,-1.336741881,0.198249582
-0.937727511,-0.265857875,-0.223576903,-0.002884626,0.029209495,0.030613661,0.449101865,-0.355643392,-0.132900372,0.269093709,-1.336741881,0.198249582
-0.937727511,-0.265857875,-0.223576903,-0.002884626,0.029209495,0.030613661,0.449101865,-0.355643392,-0.132900372,0.269093709,-1.336741881,0.198249582
-0.937727511,-0.265857875,-0.223576903,-0.002884626,0.029209495,0.030613661,0.449101865,-0.355643392,-0.132900372,0.269093709,-1.336741881,0.198249582
-0.937727511,-0.265857875,-0.223576903,-0.002884626,0.029209495,0.030613661,0.449101865,-0.355643392,-0.132900372,0.269093709,-1.336741881,0.198249582
-0.937727511,-0.265857875,-0.223576903,-0.002884626,0.029209495,0.030613661,0.449101865,-0.355643392,-0.132900372,0.269093709,-1.336741881,0.198249582
-0.937727511,-0.265857875,-0.223576903,-0.002884626,0.029209495,0.030613661,0.449101865,-0.355643392,-0.132900372,0.269093709,-1.336741881,0.198249582
-0.937727511,-0.265857875,-0.223576903,-0.002884626,0.029209495,0.030613661,0.449101865,-0.355643392,-0.132900372,0.269093709,-1.336741881,0.198249582
-0.937727511,-0.265857875,-0.223576903,-0.002884626,0.029209495,0.030613661,0.449101865,-0.355643392,-0.132900372,0.269093709,-1.336741881,0.198249582
-0.937727511,-0.265857875,-0.223576903,-0.002884626,0.029209495,0.030613661,0.449101865,-0.355643392,-0.132900372,0.269093709,-1.336741881,0.198249582
-0.937727511,-0.265857875,-0.223576903,-0.002884626,0.029209495,0.030613661,0.449101865,-0.355643392,-0.132900372,0.269093709,-1.336741881,0.198249582
-0.937727511,-0.265857875,-0.223576903,-0.002884626,0.029209495,0.030613661,0.449101865,-0.355643392,-0.132900372,0.269093709,-1.336741881,0.198249582
-0.937727511,-0.265857875,-0.223576903,-0.002884626,0.029209495,0.030613661,0.449101865,-0.355643392,-0.132900372,0.269093709,-1.336741881,0.198249582
-0.937727511,-0.265857875,-0.223576903,-0.002884626,0.029209495,0.030613661,0.449101865,-0.355643392,-0.132900372,0.269093709,-1.336741881,0.198249582
-0.941758275,-0.271498024,-0.198444381,-0.044629812,0.070418,-0.026638925,1.174025774,-0.621618032,-0.239056528,0.274949163,-1.363117607,0.22284989
-0.941758275,-0.271498024,-0.198444381,-0.044629812,0.070418,-0.026638925,1.174025774,-0.621618032,-0.239056528,0.274949163,-1.363117607,0.22284989
-0.941758275,-0.271498024,-0.198444381,-0.044629812,0.070418,-0.026638925,1.174025774,-0.621618032,-0.239056528,0.274949163,-1.363117607,0.22284989
-0.941758275,-0.271498024,-0.198444381,-0.044629812,0.070418,-0.026638925,1.174025774,-0.621618032,-0.239056528,0.274949163,-1.363117607,0.22284989
-0.941758275,-0.271498024,-0.198444381,-0.044629812,0.070418,-0.026638925,1.174025774,-0.621618032,-0.239056528,0.274949163,-1.363117607,0.22284989
-0.941758275,-0.271498024,-0.198444381,-0.044629812,0.070418,-0.026638925,1.174025774,-0.621618032,-0.239056528,0.274949163,-1.363117607,0.22284989
-0.941758275,-0.271498024,-0.198444381,-0.044629812,0.070418,-0.026638925,1.174025774,-0.621618032,-0.239056528,0.274949163,-1.363117607,0.22284989
-0.941758275,-0.271498024,-0.198444381,-0.044629812,0.070418,-0.026638925,1.174025774,-0.621618032,-0.239056528,0.274949163,-1.363117607,0.22284989
-0.941758275,-0.271498024,-0.198444381,-0.044629812,0.070418,-0.026638925,1.174025774,-0.621618032,-0.239056528,0.274949163,-1.363117607,0.22284989
-0.941758275,-0.271498024,-0.198444381,-0.044629812,0.070418,-0.026638925,1.174025774,-0.621618032,-0.239056528,0.274949163,-1.363117607,0.22284989
-0.941758275,-0.271498024,-0.198444381,-0.044629812,0.070418,-0.026638925,1.174025774,-0.621618032,-0.239056528,0.274949163,-1.363117607,0.22284989
-0.941758275,-0.271498024,-0.198444381,-0.044629812,0.070418,-0.026638925,1.174025774,-0.621618032,-0.239056528,0.274949163,-1.363117607,0.22284989
-0.941758275,-0.271498024,-0.198444381,-0.044629812,0.070418,-0.026638925,1.174025774,-0.621618032,-0.239056528,0.274949163,-1.363117607,0.22284989
-0.941758275,-0.271498024,-0.198444381,-0.044629812,0.070418,-0.026638925,1.174025774,-0.621618032,-0.239056528,0.274949163,-1.363117607,0.22284989
-0.941758275,-0.271498024,-0.198444381,-0.044629812,0.070418,-0.026638925,1.174025774,-0.621618032,-0.239056528,0.274949163,-1.363117607,0.22284989
-0.941758275,-0.271498024,-0.198444381,-0.044629812,0.070418,-0.026638925,1.174025774,-0.621618032,-0.239056528,0.274949163,-1.363117607,0.22284989
-0.941758275,-0.271498024,-0.198444381,-0.044629812,0.070418,-0.026638925,1.174025774,-0.621618032,-0.239056528,0.274949163,-1.363117607,0.22284989
-0.941758275,-0.271498024,-0.198444381,-0.044629812,0.070418,-0.026638925,1.174025774,-0.621618032,-0.239056528,0.274949163,-1.363117607,0.22284989
-0.941758275,-0.271498024,-0.198444381,-0.044629812,0.070418,-0.026638925,1.174025774,-0.621618032,-0.239056528,0.274949163,-1.363117607,0.22284989
-0.943639338,-0.291048288,-0.157593474,-0.115258515,-0.00486508,-0.172546625,1.5732342,-0.545456409,-0.224120185,0.295322384,-1.405317467,0.287266207
-0.943639338,-0.291048288,-0.157593474,-0.115258515,-0.00486508,-0.172546625,1.5732342,-0.545456409,-0.224120185,0.295322384,-1.405317467,0.287266207
-0.943639338,-0.291048288,-0.157593474,-0.115258515,-0.00486508,-0.172546625,1.5732342,-0.545456409,-0.224120185,0.295322384,-1.405317467,0.287266207
-0.943639338,-0.291048288,-0.157593474,-0.115258515,-0.00486508,-0.172546625,1.5732342,-0.545456409,-0.224120185,0.295322384,-1.405317467,0.287266207
-0.943639338,-0.291048288,-0.157593474,-0.115258515,-0.00486508,-0.172546625,1.5732342,-0.545456409,-0.224120185,0.295322384,-1.405317467,0.287266207
-0.943639338,-0.291048288,-0.157593474,-0.115258515,-0.00486508,-0.172546625,1.5732342,-0.545456409,-0.224120185,0.295322384,-1.405317467,0.287266207
-0.943639338,-0.291048288,-0.157593474,-0.115258515,-0.00486508,-0.172546625,1.5732342,-0.545456409,-0.224120185,0.295322384,-1.405317467,0.287266207
-0.943639338,-0.291048288,-0.157593474,-0.115258515,-0.00486508,-0.172546625,1.5732342,-0.545456409,-0.224120185,0.295322384,-1.405317467,0.287266207
-0.943639338,-0.291048288,-0.157593474,-0.115258515,-0.00486508,-0.172546625,1.5732342,-0.545456409,-0.224120185,0.295322384,-1.405317467,0.287266207
-0.943639338,-0.291048288,-0.157593474,-0.115258515,-0.00486508,-0.172546625,1.5732342,-0.545456409,-0.224120185,0.295322384,-1.405317467,0.287266207
-0.943639338,-0.291048288,-0.157593474,-0.115258515,-0.00486508,-0.172546625,1.5732342,-0.545456409,-0.224120185,0.295322384,-1.405317467,0.287266207
-0.943639338,-0.291048288,-0.157593474,-0.115258515,-0.00486508,-0.172546625,1.5732342,-0.545456409,-0.224120185,0.295322384,-1.405317467,0.287266207
-0.943639338,-0.291048288,-0.157593474,-0.115258515,-0.00486508,-0.172546625,1.5732342,-0.545456409,-0.224120185,0.295322384,-1.405317467,0.287266207
-0.943639338,-0.291048288,-0.157593474,-0.115258515,-0.00486508,-0.172546625,1.5732342,-0.545456409,-0.224120185,0.295322384,-1.405317467,0.287266207
-0.943639338,-0.291048288,-0.157593474,-0.115258515,-0.00486508,-0.172546625,1.5732342,-0.545456409,-0.224120185,0.295322384,-1.405317467,0.287266207
-0.943639338,-0.291048288,-0.157593474,-0.115258515,-0.00486508,-0.172546625,1.5732342,-0.545456409,-0.224120185,0.295322384,-1.405317467,0.287266207
-0.943639338,-0.291048288,-0.157593474,-0.115258515,-0.00486508,-0.172546625,1.5732342,-0.545456409,-0.224120185,0.295322384,-1.405317467,0.287266207
-0.943639338,-0.291048288,-0.157593474,-0.115258515,-0.00486508,-0.172546625,1.5732342,-0.545456409,-0.224120185,0.295322384,-1.405317467,0.287266207
-0.942463696,-0.309757501,-0.125747874,-0.163766861,-0.197413772,-0.363114119,0.576335013,-0.560270905,-0.603388667,0.314937968,-1.438155092,0.326902393
-0.942463696,-0.309757501,-0.125747874,-0.163766861,-0.197413772,-0.363114119,0.576335013,-0.560270905,-0.603388667,0.314937968,-1.438155092,0.326902393
-0.942463696,-0.309757501,-0.125747874,-0.163766861,-0.197413772,-0.363114119,0.576335013,-0.560270905,-0.603388667,0.314937968,-1.438155092,0.326902393
-0.942463696,-0.309757501,-0.125747874,-0.163766861,-0.197413772,-0.363114119,0.576335013,-0.560270905,-0.603388667,0.314937968,-1.438155092,0.326902393
-0.942463696,-0.309757501,-0.125747874,-0.163766861,-0.197413772,-0.363114119,0.576335013,-0.560270905,-0.603388667,0.314937968,-1.438155092,0.326902393
-0.942463696,-0.309757501,-0.125747874,-0.163766861,-0.197413772,-0.363114119,0.576335013,-0.560270905,-0.603388667,0.314937968,-1.438155092,0.326902393
-0.942463696,-0.309757501,-0.125747874,-0.163766861,-0.197413772,-0.363114119,0.576335013,-0.560270905,-0.603388667,0.314937968,-1.438155092,0.326902393
-0.942463696,-0.309757501,-0.125747874,-0.163766861,-0.197413772,-0.363114119,0.576335013,-0.560270905,-0.603388667,0.314937968,-1.438155092,0.326902393
-0.942463696,-0.309757501,-0.125747874,-0.163766861,-0.197413772,-0.363114119,0.576335013,-0.560270905,-0.603388667,0.314937968,-1.438155092,0.326902393
-0.942463696,-0.309757501,-0.125747874,-0.163766861,-0.197413772,-0.363114119,0.576335013,-0.560270905,-0.603388667,0.314937968,-1.438155092,0.326902393
-0.942463696,-0.309757501,-0.125747874,-0.163766861,-0.197413772,-0.363114119,0.576335013,-0.560270905,-0.603388667,0.314937968,-1.438155092,0.326902393
-0.942463696,-0.309757501,-0.125747874,-0.163766861,-0.197413772,-0.363114119,0.576335013,-0.560270905,-0.603388667,0.314937968,-1.438155092,0.326902393
-0.942463696,-0.309757501,-0.125747874,-0.163766861,-0.197413772,-0.363114119,0.576335013,-0.560270905,-0.603388667,0.314937968,-1.438155092,0.326902393
-0.942463696,-0.309757501,-0.125747874,-0.163766861,-0.197413772,-0.363114119,0.576335013,-0.560270905,-0.603388667,0.314937968,-1.438155092,0.326902393
-0.942463696,-0.309757501,-0.125747874,-0.163766861,-0.197413772,-0.363114119,0.576335013,-0.560270905,-0.603388667,0.314937968,-1.438155092,0.326902393
-0.942463696,-0.309757501,-0.125747874,-0.163766861,-0.197413772,-0.363114119,0.576335013,-0.560270905,-0.603388667,0.314937968,-1.438155092,0.326902393
-0.942463696,-0.309757501,-0.125747874,-0.163766861,-0.197413772,-0.363114119,0.576335013,-0.560270905,-0.603388667,0.314937968,-1.438155092,0.326902393
-0.929264069,-0.353019804,-0.10883674,-0.280848444,-0.249869823,-0.141606748,0.636096001,0.156318679,-1.654131055,0.360796752,-1.454206069,0.346027042
-0.929264069,-0.353019804,-0.10883674,-0.280848444,-0.249869823,-0.141606748,0.636096001,0.156318679,-1.654131055,0.360796752,-1.454206069,0.346027042
-0.929264069,-0.353019804,-0.10883674,-0.280848444,-0.249869823,-0.141606748,0.636096001,0.156318679,-1.654131055,0.360796752,-1.454206069,0.346027042
-0.929264069,-0.353019804,-0.10883674,-0.280848444,-0.249869823,-0.141606748,0.636096001,0.156318679,-1.654131055,0.360796752,-1.454206069,0.346027042
-0.929264069,-0.353019804,-0.10883674,-0.280848444,-0.249869823,-0.141606748,0.636096001,0.156318679,-1.654131055,0.360796752,-1.454206069,0.346027042
-0.929264069,-0.353019804,-0.10883674,-0.280848444,-0.249869823,-0.141606748,0.636096001,0.156318679,-1.654131055,0.360796752,-1.454206069,0.346027042
-0.929264069,-0.353019804,-0.10883674,-0.280848444,-0.249869823,-0.141606748,0.636096001,0.156318679,-1.654131055,0.360796752,-1.454206069,0.346027042
-0.929264069,-0.353019804,-0.10883674,-0.280848444,-0.249869823,-0.141606748,0.636096001,0.156318679,-1.654131055,0.360796752,-1.454206069,0.346027042
-0.929264069,-0.353019804,-0.10883674,-0.280848444,-0.249869823,-0.141606748,0.636096001,0.156318679,-1.654131055,0.360796752,-1.454206069,0.346027042
-0.929264069,-0.353019804,-0.10883674,-0.280848444,-0.249869823,-0.141606748,0.636096001,0.156318679,-1.654131055,0.360796752,-1.454206069,0.346027042
-0.929264069,-0.353019804,-0.10883674,-0.280848444,-0.249869823,-0.141606748,0.636096001,0.156318679,-1.654131055,0.360796752,-1.454206069,0.346027042
-0.929264069,-0.353019804,-0.10883674,-0.280848444,-0.249869823,-0.141606748,0.636096001,0.156318679,-1.654131055,0.360796752,-1.454206069,0.346027042
-0.929264069,-0.353019804,-0.10883674,-0.280848444,-0.249869823,-0.141606748,0.636096001,0.156318679,-1.654131055,0.360796752,-1.454206069,0.346027042
-0.929264069,-0.353019804,-0.10883674,-0.280848444,-0.249869823,-0.141606748,0.636096001,0.156318679,-1.654131055,0.360796752,-1.454206069,0.346027042
-0.929264069,-0.353019804,-0.10883674,-0.280848444,-0.249869823,-0.141606748,0.636096001,0.156318679,-1.654131055,0.360796752,-1.454206069,0.346027042
-0.929264069,-0.353019804,-0.10883674,-0.280848444,-0.249869823,-0.141606748,0.636096001,0.156318679,-1.654131055,0.360796752,-1.454206069,0.346027042
-0.929264069,-0.353019804,-0.10883674,-0.280848444,-0.249869823,-0.141606748,0.636096001,0.156318679,-1.654131055,0.360796752,-1.454206069,0.346027042
-0.929264069,-0.353019804,-0.10883674,-0.280848444,-0.249869823,-0.141606748,0.636096001,0.156318679,-1.654131055,0.360796752,-1.454206069,0.346027042
-0.929264069,-0.353019804,-0.10883674,-0.280848444,-0.249869823,-0.141606748,0.636096001,0.156318679,-1.654131055,0.360796752,-1.454206069,0.346027042
-0.929264069,-0.353019804,-0.10883674,-0.280848444,-0.249869823,-0.141606748,0.636096001,0.156318679,-1.654131055,0.360796752,-1.454206069,0.346027042
-0.929264069,-0.353019804,-0.10883674,-0.280848444,-0.249869823,-0.141606748,0.636096001,0.156318679,-1.654131055,0.360796752,-1.454206069,0.346027042
-0.891156852,-0.43731907,-0.12079633,-0.468293607,-0.395840973,-0.19828099,0.050046995,0.785368443,-2.889579058,0.45261539,-1.436067469,0.349182147
-0.891156852,-0.43731907,-0.12079633,-0.468293607,-0.395840973,-0.19828099,0.050046995,0.785368443,-2.889579058,0.45261539,-1.436067469,0.349182147
-0.891156852,-0.43731907,-0.12079633,-0.468293607,-0.395840973,-0.19828099,0.050046995,0.785368443,-2.889579058,0.45261539,-1.436067469,0.349182147
-0.891156852,-0.43731907,-0.12079633,-0.468293607,-0.395840973,-0.19828099,0.050046995,0.785368443,-2.889579058,0.45261539,-1.436067469,0.349182147
-0.891156852,-0.43731907,-0.12079633,-0.468293607,-0.395840973,-0.19828099,0.050046995,0.785368443,-2.889579058,0.45261539,-1.436067469,0.349182147
-0.891156852,-0.43731907,-0.12079633,-0.468293607,-0.395840973,-0.19828099,0.050046995,0.785368443,-2.889579058,0.45261539,-1.436067469,0.349182147
-0.891156852,-0.43731907,-0.12079633,-0.468293607,-0.395840973,-0.19828099,0.050046995,0.785368443,-2.889579058,0.45261539,-1.436067469,0.349182147
-0.891156852,-0.43731907,-0.12079633,-0.468293607,-0.395840973,-0.19828099,0.050046995,0.785368443,-2.889579058,0.45261539,-1.436067469,0.349182147
-0.891156852,-0.43731907,-0.12079633,-0.468293607,-0.395840973,-0.19828099,0.050046995,0.785368443,-2.889579058,0.45261539,-1.436067469,0.349182147
-0.891156852,-0.43731907,-0.12079633,-0.468293607,-0.395840973,-0.19828099,0.050046995,0.785368443,-2.889579058,0.45261539,-1.436067469,0.349182147
-0.891156852,-0.43731907,-0.12079633,-0.468293607,-0.395840973,-0.19828099,0.050046995,0.785368443,-2.889579058,0.45261539,-1.436067469,0.349182147
-0.891156852,-0.43731907,-0.12079633,-0.468293607,-0.395840973,-0.19828099,0.050046995,0.785368443,-2.889579058,0.45261539,-1.436067469,0.349182147
-0.891156852,-0.43731907,-0.12079633,-0.468293607,-0.395840973,-0.19828099,0.050046995,0.785368443,-2.889579058,0.45261539,-1.436067469,0.349182147
-0.891156852,-0.43731907,-0.12079633,-0.468293607,-0.395840973,-0.19828099,0.050046995,0.785368443,-2.889579058,0.45261539,-1.436067469,0.349182147
-0.891156852,-0.43731907,-0.12079633,-0.468293607,-0.395840973,-0.19828099,0.050046995,0.785368443,-2.889579058,0.45261539,-1.436067469,0.349182147
-0.891156852,-0.43731907,-0.12079633,-0.468293607,-0.395840973,-0.19828099,0.050046995,0.785368443,-2.889579058,0.45261539,-1.436067469,0.349182147
-0.891156852,-0.43731907,-0.12079633,-0.468293607,-0.395840973,-0.19828099,0.050046995,0.785368443,-2.889579058,0.45261539,-1.436067469,0.349182147
-0.891156852,-0.43731907,-0.12079633,-0.468293607,-0.395840973,-0.19828099,0.050046995,0.785368443,-2.889579058,0.45261539,-1.436067469,0.349182147
-0.891156852,-0.43731907,-0.12079633,-0.468293607,-0.395840973,-0.19828099,0.050046995,0.785368443,-2.889579058,0.45261539,-1.436067469,0.349182147
-0.891156852,-0.43731907,-0.12079633,-0.468293607,-0.395840973,-0.19828099,0.050046995,0.785368443,-2.889579058,0.45261539,-1.436067469,0.349182147
-0.891156852,-0.43731907,-0.12079633,-0.468293607,-0.395840973,-0.19828099,0.050046995,0.785368443,-2.889579058,0.45261539,-1.436067469,0.349182147
-0.891156852,-0.43731907,-0.12079633,-0.468293607,-0.395840973,-0.19828099,0.050046995,0.785368443,-2.889579058,0.45261539,-1.436067469,0.349182147
-0.891156852,-0.43731907,-0.12079633,-0.468293607,-0.395840973,-0.19828099,0.050046995,0.785368443,-2.889579058,0.45261539,-1.436067469,0.349182147
-0.820611537,-0.548920214,-0.159006923,-0.481877565,-0.432860017,-0.020910621,-0.613110542,1.042565346,-3.80468297,0.581071913,-1.379401765,0.308486796
-0.820611537,-0.548920214,-0.159006923,-0.481877565,-0.432860017,-0.020910621,-0.613110542,1.042565346,-3.80468297,0.581071913,-1.379401765,0.308486796
-0.820611537,-0.548920214,-0.159006923,-0.481877565,-0.432860017,-0.020910621,-0.613110542,1.042565346,-3.80468297,0.581071913,-1.379401765,0.308486796
-0.820611537,-0.548920214,-0.159006923,-0.481877565,-0.432860017,-0.020910621,-0.613110542,1.042565346,-3.80468297,0.581071913,-1.379401765,0.308486796
-0.820611537,-0.548920214,-0.159006923,-0.481877565,-0.432860017,-0.020910621,-0.613110542,1.042565346,-3.80468297,0.581071913,-1.379401765,0.308486796
-0.820611537,-0.548920214,-0.159006923,-0.481877565,-0.432860017,-0.020910621,-0.613110542,1.042565346,-3.80468297,0.581071913,-1.379401765,0.308486796
-0.70759654,-0.677542865,-0.200606182,-0.42516923,-0.388343692,0.087110162,-0.178318128,0.960374177,-4.66340065,0.744416592,-1.294541671,0.239043093
-0.70759654,-0.677542865,-0.200606182,-0.42516923,-0.388343692,0.087110162,-0.178318128,0.960374177,-4.66340065,0.744416592,-1.294541671,0.239043093
-0.70759654,-0.677542865,-0.200606182,-0.42516923,-0.388343692,0.087110162,-0.178318128,0.960374177,-4.66340065,0.744416592,-1.294541671,0.239043093
-0.557443857,-0.798208714,-0.228296459,-0.326359689,-0.272041619,0.182351232,-0.149891689,0.871179223,-4.932656288,0.924315703,-1.182091582,0.136247517
-0.557443857,-0.798208714,-0.228296459,-0.326359689,-0.272041619,0.182351232,-0.149891689,0.871179223,-4.932656288,0.924315703,-1.182091582,0.136247517
-0.557443857,-0.798208714,-0.228296459,-0.326359689,-0.272041619,0.182351232,-0.149891689,0.871179223,-4.932656288,0.924315703,-1.182091582,0.136247517
-0.557443857,-0.798208714,-0.228296459,-0.326359689,-0.272041619,0.182351232,-0.149891689,0.871179223,-4.932656288,0.924315703,-1.182091582,0.136247517
-0.557443857,-0.798208714,-0.228296459,-0.326359689,-0.272041619,0.182351232,-0.149891689,0.871179223,-4.932656288,0.924315703,-1.182091582,0.136247517
-0.557443857,-0.798208714,-0.228296459,-0.326359689,-0.272041619,0.182351232,-0.149891689,0.871179223,-4.932656288,0.924315703,-1.182091582,0.136247517
-0.557443857,-0.798208714,-0.228296459,-0.326359689,-0.272041619,0.182351232,-0.149891689,0.871179223,-4.932656288,0.924315703,-1.182091582,0.136247517
-0.557443857,-0.798208714,-0.228296459,-0.326359689,-0.272041619,0.182351232,-0.149891689,0.871179223,-4.932656288,0.924315703,-1.182091582,0.136247517
-0.557443857,-0.798208714,-0.228296459,-0.326359689,-0.272041619,0.182351232,-0.149891689,0.871179223,-4.932656288,0.924315703,-1.182091582,0.136247517
-0.557443857,-0.798208714,-0.228296459,-0.326359689,-0.272041619,0.182351232,-0.149891689,0.871179223,-4.932656288,0.924315703,-1.182091582,0.136247517
-0.377138317,-0.894960105,-0.238355443,-0.191907167,0.088824272,0.25718379,0.419121057,0.692341089,-5.205714226,1.108341715,-1.007171498,-0.028691398
-0.377138317,-0.894960105,-0.238355443,-0.191907167,0.088824272,0.25718379,0.419121057,0.692341089,-5.205714226,1.108341715,-1.007171498,-0.028691398
-0.377138317,-0.894960105,-0.238355443,-0.191907167,0.088824272,0.25718379,0.419121057,0.692341089,-5.205714226,1.108341715,-1.007171498,-0.028691398
-0.377138317,-0.894960105,-0.238355443,-0.191907167,0.088824272,0.25718379,0.419121057,0.692341089,-5.205714226,1.108341715,-1.007171498,-0.028691398
-0.377138317,-0.894960105,-0.238355443,-0.191907167,0.088824272,0.25718379,0.419121057,0.692341089,-5.205714226,1.108341715,-1.007171498,-0.028691398
-0.377138317,-0.894960105,-0.238355443,-0.191907167,0.088824272,0.25718379,0.419121057,0.692341089,-5.205714226,1.108341715,-1.007171498,-0.028691398
-0.377138317,-0.894960105,-0.238355443,-0.191907167,0.088824272,0.25718379,0.419121057,0.692341089,-5.205714226,1.108341715,-1.007171498,-0.028691398
-0.377138317,-0.894960105,-0.238355443,-0.191907167,0.088824272,0.25718379,0.419121057,0.692341089,-5.205714226,1.108341715,-1.007171498,-0.028691398
-0.377138317,-0.894960105,-0.238355443,-0.191907167,0.088824272,0.25718379,0.419121057,0.692341089,-5.205714226,1.108341715,-1.007171498,-0.028691398
-0.377138317,-0.894960105,-0.238355443,-0.191907167,0.088824272,0.25718379,0.419121057,0.692341089,-5.205714226,1.108341715,-1.007171498,-0.028691398
-0.377138317,-0.894960105,-0.238355443,-0.191907167,0.088824272,0.25718379,0.419121057,0.692341089,-5.205714226,1.108341715,-1.007171498,-0.028691398
-0.377138317,-0.894960105,-0.238355443,-0.191907167,0.088824272,0.25718379,0.419121057,0.692341089,-5.205714226,1.108341715,-1.007171498,-0.028691398
-0.377138317,-0.894960105,-0.238355443,-0.191907167,0.088824272,0.25718379,0.419121057,0.692341089,-5.205714226,1.108341715,-1.007171498,-0.028691398
-0.377138317,-0.894960105,-0.238355443,-0.191907167,0.088824272,0.25718379,0.419121057,0.692341089,-5.205714226,1.108341715,-1.007171498,-0.028691398
-0.181047752,-0.954987764,-0.234989688,-0.22349295,-0.042508304,0.326327562,-0.0081109,0.307470262,-5.080080032,1.269618474,-0.656461019,-0.384313025
-0.181047752,-0.954987764,-0.234989688,-0.22349295,-0.042508304,0.326327562,-0.0081109,0.307470262,-5.080080032,1.269618474,-0.656461019,-0.384313025
-0.181047752,-0.954987764,-0.234989688,-0.22349295,-0.042508304,0.326327562,-0.0081109,0.307470262,-5.080080032,1.269618474,-0.656461019,-0.384313025
-0.181047752,-0.954987764,-0.234989688,-0.22349295,-0.042508304,0.326327562,-0.0081109,0.307470262,-5.080080032,1.269618474,-0.656461019,-0.384313025
-0.181047752,-0.954987764,-0.234989688,-0.22349295,-0.042508304,0.326327562,-0.0081109,0.307470262,-5.080080032,1.269618474,-0.656461019,-0.384313025
-0.181047752,-0.954987764,-0.234989688,-0.22349295,-0.042508304,0.326327562,-0.0081109,0.307470262,-5.080080032,1.269618474,-0.656461019,-0.384313025
-0.181047752,-0.954987764,-0.234989688,-0.22349295,-0.042508304,0.326327562,-0.0081109,0.307470262,-5.080080032,1.269618474,-0.656461019,-0.384313025
-0.181047752,-0.954987764,-0.234989688,-0.22349295,-0.042508304,0.326327562,-0.0081109,0.307470262,-5.080080032,1.269618474,-0.656461019,-0.384313025
-0.181047752,-0.954987764,-0.234989688,-0.22349295,-0.042508304,0.326327562,-0.0081109,0.307470262,-5.080080032,1.269618474,-0.656461019,-0.384313025
0.01724498,-0.971949041,-0.234558657,-0.20631665,0.118450522,0.274641991,0.245070741,-0.187959373,-5.152445793,1.333380653,0.073388925,-1.134337527
0.01724498,-0.971949041,-0.234558657,-0.20631665,0.118450522,0.274641991,0.245070741,-0.187959373,-5.152445793,1.333380653,0.073388925,-1.134337527
0.01724498,-0.971949041,-0.234558657,-0.20631665,0.118450522,0.274641991,0.245070741,-0.187959373,-5.152445793,1.333380653,0.073388925,-1.134337527
0.01724498,-0.971949041,-0.234558657,-0.20631665,0.118450522,0.274641991,0.245070741,-0.187959373,-5.152445793,1.333380653,0.073388925,-1.134337527
0.01724498,-0.971949041,-0.234558657,-0.20631665,0.118450522,0.274641991,0.245070741,-0.187959373,-5.152445793,1.333380653,0.073388925,-1.134337527
0.01724498,-0.971949041,-0.234558657,-0.20631665,0.118450522,0.274641991,0.245070741,-0.187959373,-5.152445793,1.333380653,0.073388925,-1.134337527
0.01724498,-0.971949041,-0.234558657,-0.20631665,0.118450522,0.274641991,0.245070741,-0.187959373,-5.152445793,1.333380653,0.073388925,-1.134337527
0.01724498,-0.971949041,-0.234558657,-0.20631665,0.118450522,0.274641991,0.245070741,-0.187959373,-5.152445793,1.333380653,0.073388925,-1.134337527
0.01724498,-0.971949041,-0.234558657,-0.20631665,0.118450522,0.274641991,0.245070741,-0.187959373,-5.152445793,1.333380653,0.073388925,-1.134337527
0.01724498,-0.971949041,-0.234558657,-0.20631665,0.118450522,0.274641991,0.245070741,-0.187959373,-5.152445793,1.333380653,0.073388925,-1.134337527
0.01724498,-0.971949041,-0.234558657,-0.20631665,0.118450522,0.274641991,0.245070741,-0.187959373,-5.152445793,1.333380653,0.073388925,-1.134337527
0.01724498,-0.971949041,-0.234558657,-0.20631665,0.118450522,0.274641991,0.245070741,-0.187959373,-5.152445793,1.333380653,0.073388925,-1.134337527
0.205476329,-0.951517522,-0.228897348,-0.217149734,-0.066638529,0.435011506,-0.066004097,-0.886404335,-4.819460392,1.258132267,0.731531242,-1.838348175
0.205476329,-0.951517522,-0.228897348,-0.217149734,-0.066638529,0.435011506,-0.066004097,-0.886404335,-4.819460392,1.258132267,0.731531242,-1.838348175
0.205476329,-0.951517522,-0.228897348,-0.217149734,-0.066638529,0.435011506,-0.066004097,-0.886404335,-4.819460392,1.258132267,0.731531242,-1.838348175
0.205476329,-0.951517522,-0.228897348,-0.217149734,-0.066638529,0.435011506,-0.066004097,-0.886404335,-4.819460392,1.258132267,0.731531242,-1.838348175
0.205476329,-0.951517522,-0.228897348,-0.217149734,-0.066638529,0.435011506,-0.066004097,-0.886404335,-4.819460392,1.258132267,0.731531242,-1.838348175
0.205476329,-0.951517522,-0.228897348,-0.217149734,-0.066638529,0.435011506,-0.066004097,-0.886404335,-4.819460392,1.258132267,0.731531242,-1.838348175
0.368935943,-0.897897542,-0.240138918,-0.280725598,0.086787701,0.384668827,0.452778727,-1.41365242,-4.566732883,1.114969843,0.993791523,-2.17104048
0.368935943,-0.897897542,-0.240138918,-0.280725598,0.086787701,0.384668827,0.452778727,-1.41365242,-4.566732883,1.114969843,0.993791523,-2.17104048
0.368935943,-0.897897542,-0.240138918,-0.280725598,0.086787701,0.384668827,0.452778727,-1.41365242,-4.566732883,1.114969843,0.993791523,-2.17104048
0.368935943,-0.897897542,-0.240138918,-0.280725598,0.086787701,0.384668827,0.452778727,-1.41365242,-4.566732883,1.114969843,0.993791523,-2.17104048
0.368935943,-0.897897542,-0.240138918,-0.280725598,0.086787701,0.384668827,0.452778727,-1.41365242,-4.566732883,1.114969843,0.993791523,-2.17104048
0.368935943,-0.897897542,-0.240138918,-0.280725598,0.086787701,0.384668827,0.452778727,-1.41365242,-4.566732883,1.114969843,0.993791523,-2.17104048
0.504887342,-0.829491079,-0.238816515,-0.344960928,0.122888684,0.313339055,1.041579008,-1.62533021,-4.074758053,0.978195905,1.128973321,-2.39635168
0.504887342,-0.829491079,-0.238816515,-0.344960928,0.122888684,0.313339055,1.041579008,-1.62533021,-4.074758053,0.978195905,1.128973321,-2.39635168
0.504887342,-0.829491079,-0.238816515,-0.344960928,0.122888684,0.313339055,1.041579008,-1.62533021,-4.074758053,0.978195905,1.128973321,-2.39635168
0.504887342,-0.829491079,-0.238816515,-0.344960928,0.122888684,0.313339055,1.041579008,-1.62533021,-4.074758053,0.978195905,1.128973321,-2.39635168
0.504887342,-0.829491079,-0.238816515,-0.344960928,0.122888684,0.313339055,1.041579008,-1.62533021,-4.074758053,0.978195905,1.128973321,-2.39635168
0.504887342,-0.829491079,-0.238816515,-0.344960928,0.122888684,0.313339055,1.041579008,-1.62533021,-4.074758053,0.978195905,1.128973321,-2.39635168
0.504887342,-0.829491079,-0.238816515,-0.344960928,0.122888684,0.313339055,1.041579008,-1.62533021,-4.074758053,0.978195905,1.128973321,-2.39635168
0.504887342,-0.829491079,-0.238816515,-0.344960928,0.122888684,0.313339055,1.041579008,-1.62533021,-4.074758053,0.978195905,1.128973321,-2.39635168
0.504887342,-0.829491079,-0.238816515,-0.344960928,0.122888684,0.313339055,1.041579008,-1.62533021,-4.074758053,0.978195905,1.128973321,-2.39635168
0.504887342,-0.829491079,-0.238816515,-0.344960928,0.122888684,0.313339055,1.041579008,-1.62533021,-4.074758053,0.978195905,1.128973321,-2.39635168
0.504887342,-0.829491079,-0.238816515,-0.344960928,0.122888684,0.313339055,1.041579008,-1.62533021,-4.074758053,0.978195905,1.128973321,-2.39635168
0.504887342,-0.829491079,-0.238816515,-0.344960928,0.122888684,0.313339055,1.041579008,-1.62533021,-4.074758053,0.978195905,1.128973321,-2.39635168
0.608699501,-0.753785133,-0.247574538,-0.335186839,0.038271427,0.339659989,1.080919266,-1.998812795,-3.527508497,0.853803358,1.184504266,-2.559422412
0.608699501,-0.753785133,-0.247574538,-0.335186839,0.038271427,0.339659989,1.080919266,-1.998812795,-3.527508497,0.853803358,1.184504266,-2.559422412
0.608699501,-0.753785133,-0.247574538,-0.335186839,0.038271427,0.339659989,1.080919266,-1.998812795,-3.527508497,0.853803358,1.184504266,-2.559422412
0.608699501,-0.753785133,-0.247574538,-0.335186839,0.038271427,0.339659989,1.080919266,-1.998812795,-3.527508497,0.853803358,1.184504266,-2.559422412
0.608699501,-0.753785133,-0.247574538,-0.335186839,0.038271427,0.339659989,1.080919266,-1.998812795,-3.527508497,0.853803358,1.184504266,-2.559422412
0.608699501,-0.753785133,-0.247574538,-0.335186839,0.038271427,0.339659989,1.080919266,-1.998812795,-3.527508497,0.853803358,1.184504266,-2.559422412
0.608699501,-0.753785133,-0.247574538,-0.335186839,0.038271427,0.339659989,1.080919266,-1.998812795,-3.527508497,0.853803358,1.184504266,-2.559422412
0.608699501,-0.753785133,-0.247574538,-0.335186839,0.038271427,0.339659989,1.080919266,-1.998812795,-3.527508497,0.853803358,1.184504266,-2.559422412
0.608699501,-0.753785133,-0.247574538,-0.335186839,0.038271427,0.339659989,1.080919266,-1.998812795,-3.527508497,0.853803358,1.184504266,-2.559422412
0.608699501,-0.753785133,-0.247574538,-0.335186839,0.038271427,0.339659989,1.080919266,-1.998812795,-3.527508497,0.853803358,1.184504266,-2.559422412
0.677500904,-0.684704781,-0.268648565,-0.385952771,0.181135833,0.094299853,1.378288388,-2.27443409,-2.781205177,0.754198565,1.193286002,-2.693241368
0.677500904,-0.684704781,-0.268648565,-0.385952771,0.181135833,0.094299853,1.378288388,-2.27443409,-2.781205177,0.754198565,1.193286002,-2.693241368
0.677500904,-0.684704781,-0.268648565,-0.385952771,0.181135833,0.094299853,1.378288388,-2.27443409,-2.781205177,0.754198565,1.193286002,-2.693241368
0.677500904,-0.684704781,-0.268648565,-0.385952771,0.181135833,0.094299853,1.378288388,-2.27443409,-2.781205177,0.754198565,1.193286002,-2.693241368
0.677500904,-0.684704781,-0.268648565,-0.385952771,0.181135833,0.094299853,1.378288388,-2.27443409,-2.781205177,0.754198565,1.193286002,-2.693241368
0.677500904,-0.684704781,-0.268648565,-0.385952771,0.181135833,0.094299853,1.378288388,-2.27443409,-2.781205177,0.754198565,1.193286002,-2.693241368
0.677500904,-0.684704781,-0.268648565,-0.385952771,0.181135833,0.094299853,1.378288388,-2.27443409,-2.781205177,0.754198565,1.193286002,-2.693241368
0.677500904,-0.684704781,-0.268648565,-0.385952771,0.181135833,0.094299853,1.378288388,-2.27443409,-2.781205177,0.754198565,1.193286002,-2.693241368
0.677500904,-0.684704781,-0.268648565,-0.385952771,0.181135833,0.094299853,1.378288388,-2.27443409,-2.781205177,0.754198565,1.193286002,-2.693241368
0.677500904,-0.684704781,-0.268648565,-0.385952771,0.181135833,0.094299853,1.378288388,-2.27443409,-2.781205177,0.754198565,1.193286002,-2.693241368
0.677500904,-0.684704781,-0.268648565,-0.385952771,0.181135833,0.094299853,1.378288388,-2.27443409,-2.781205177,0.754198565,1.193286002,-2.693241368
0.677500904,-0.684704781,-0.268648565,-0.385952771,0.181135833,0.094299853,1.378288388,-2.27443409,-2.781205177,0.754198565,1.193286002,-2.693241368
0.677500904,-0.684704781,-0.268648565,-0.385952771,0.181135833,0.094299853,1.378288388,-2.27443409,-2.781205177,0.754198565,1.193286002,-2.693241368
0.677500904,-0.684704781,-0.268648565,-0.385952771,0.181135833,0.094299853,1.378288388,-2.27443409,-2.781205177,0.754198565,1.193286002,-2.693241368
0.677500904,-0.684704781,-0.268648565,-0.385952771,0.181135833,0.094299853,1.378288388,-2.27443409,-2.781205177,0.754198565,1.193286002,-2.693241368
0.71522665,-0.628868818,-0.3049182,-0.414309859,-0.039144158,0.031952024,0.381773502,-2.073622942,-1.975508451,0.68009746,1.16780488,-2.789433685
0.71522665,-0.628868818,-0.3049182,-0.414309859,-0.039144158,0.031952024,0.381773502,-2.073622942,-1.975508451,0.68009746,1.16780488,-2.789433685
0.71522665,-0.628868818,-0.3049182,-0.414309859,-0.039144158,0.031952024,0.381773502,-2.073622942,-1.975508451,0.68009746,1.16780488,-2.789433685
0.71522665,-0.628868818,-0.3049182,-0.414309859,-0.039144158,0.031952024,0.381773502,-2.073622942,-1.975508451,0.68009746,1.16780488,-2.789433685
0.71522665,-0.628868818,-0.3049182,-0.414309859,-0.039144158,0.031952024,0.381773502,-2.073622942,-1.975508451,0.68009746,1.16780488,-2.789433685
0.71522665,-0.628868818,-0.3049182,-0.414309859,-0.039144158,0.031952024,0.381773502,-2.073622942,-1.975508451,0.68009746,1.16780488,-2.789433685
0.71522665,-0.628868818,-0.3049182,-0.414309859,-0.039144158,0.031952024,0.381773502,-2.073622942,-1.975508451,0.68009746,1.16780488,-2.789433685
0.71522665,-0.628868818,-0.3049182,-0.414309859,-0.039144158,0.031952024,0.381773502,-2.073622942,-1.975508451,0.68009746,1.16780488,-2.789433685
0.71522665,-0.628868818,-0.3049182,-0.414309859,-0.039144158,0.031952024,0.381773502,-2.073622942,-1.975508451,0.68009746,1.16780488,-2.789433685
0.730522513,-0.581811249,-0.35753727,-0.217264295,0.259470701,-0.004509568,0.595637202,-2.166249037,-1.604866266,0.620953872,1.115643028,-2.842575565
0.730522513,-0.581811249,-0.35753727,-0.217264295,0.259470701,-0.004509568,0.595637202,-2.166249037,-1.604866266,0.620953872,1.115643028,-2.842575565
0.730522513,-0.581811249,-0.35753727,-0.217264295,0.259470701,-0.004509568,0.595637202,-2.166249037,-1.604866266,0.620953872,1.115643028,-2.842575565
0.730522513,-0.581811249,-0.35753727,-0.217264295,0.259470701,-0.004509568,0.595637202,-2.166249037,-1.604866266,0.620953872,1.115643028,-2.842575565
0.730522513,-0.581811249,-0.35753727,-0.217264295,0.259470701,-0.004509568,0.595637202,-2.166249037,-1.604866266,0.620953872,1.115643028,-2.842575565
0.730522513,-0.581811249,-0.35753727,-0.217264295,0.259470701,-0.004509568,0.595637202,-2.166249037,-1.604866266,0.620953872,1.115643028,-2.842575565
0.730522513,-0.581811249,-0.35753727,-0.217264295,0.259470701,-0.004509568,0.595637202,-2.166249037,-1.604866266,0.620953872,1.115643028,-2.842575565
0.730522513,-0.581811249,-0.35753727,-0.217264295,0.259470701,-0.004509568,0.595637202,-2.166249037,-1.604866266,0.620953872,1.115643028,-2.842575565
0.730522513,-0.581811249,-0.35753727,-0.217264295,0.259470701,-0.004509568,0.595637202,-2.166249037,-1.604866266,0.620953872,1.115643028,-2.842575565
0.730522513,-0.581811249,-0.35753727,-0.217264295,0.259470701,-0.004509568,0.595637202,-2.166249037,-1.604866266,0.620953872,1.115643028,-2.842575565
0.730522513,-0.581811249,-0.35753727,-0.217264295,0.259470701,-0.004509568,0.595637202,-2.166249037,-1.604866266,0.620953872,1.115643028,-2.842575565
0.730522513,-0.581811249,-0.35753727,-0.217264295,0.259470701,-0.004509568,0.595637202,-2.166249037,-1.604866266,0.620953872,1.115643028,-2.842575565
0.730522513,-0.581811249,-0.35753727,-0.217264295,0.259470701,-0.004509568,0.595637202,-2.166249037,-1.604866266,0.620953872,1.115643028,-2.842575565
0.730522513,-0.581811249,-0.35753727,-0.217264295,0.259470701,-0.004509568,0.595637202,-2.166249037,-1.604866266,0.620953872,1.115643028,-2.842575565
0.736445785,-0.551665127,-0.391552538,-0.363644719,-0.001876652,0.094645619,0.217166826,-1.197045684,-1.020071626,0.584359347,1.082128108,-2.897154986
0.736445785,-0.551665127,-0.391552538,-0.363644719,-0.001876652,0.094645619,0.217166826,-1.197045684,-1.020071626,0.584359347,1.082128108,-2.897154986
0.736445785,-0.551665127,-0.391552538,-0.363644719,-0.001876652,0.094645619,0.217166826,-1.197045684,-1.020071626,0.584359347,1.082128108,-2.897154986
0.736445785,-0.551665127,-0.391552538,-0.363644719,-0.001876652,0.094645619,0.217166826,-1.197045684,-1.020071626,0.584359347,1.082128108,-2.897154986
0.736445785,-0.551665127,-0.391552538,-0.363644719,-0.001876652,0.094645619,0.217166826,-1.197045684,-1.020071626,0.584359347,1.082128108,-2.897154986
0.736445785,-0.551665127,-0.391552538,-0.363644719,-0.001876652,0.094645619,0.217166826,-1.197045684,-1.020071626,0.584359347,1.082128108,-2.897154986
0.736445785,-0.551665127,-0.391552538,-0.363644719,-0.001876652,0.094645619,0.217166826,-1.197045684,-1.020071626,0.584359347,1.082128108,-2.897154986
0.736445785,-0.551665127,-0.391552538,-0.363644719,-0.001876652,0.094645619,0.217166826,-1.197045684,-1.020071626,0.584359347,1.082128108,-2.897154986
0.736445785,-0.551665127,-0.391552538,-0.363644719,-0.001876652,0.094645619,0.217166826,-1.197045684,-1.020071626,0.584359347,1.082128108,-2.897154986
0.736445785,-0.551665127,-0.391552538,-0.363644719,-0.001876652,0.094645619,0.217166826,-1.197045684,-1.020071626,0.584359347,1.082128108,-2.897154986
0.736445785,-0.551665127,-0.391552538,-0.363644719,-0.001876652,0.094645619,0.217166826,-1.197045684,-1.020071626,0.584359347,1.082128108,-2.897154986
0.736445785,-0.551665127,-0.391552538,-0.363644719,-0.001876652,0.094645619,0.217166826,-1.197045684,-1.020071626,0.584359347,1.082128108,-2.897154986
0.736445785,-0.551665127,-0.391552538,-0.363644719,-0.001876652,0.094645619,0.217166826,-1.197045684,-1.020071626,0.584359347,1.082128108,-2.897154986
0.733534813,-0.526692271,-0.429560274,-0.088608682,0.13231492,0.036049902,0.519951284,-1.461958528,-0.819660723,0.554704645,1.041030031,-2.925468753
0.733534813,-0.526692271,-0.429560274,-0.088608682,0.13231492,0.036049902,0.519951284,-1.461958528,-0.819660723,0.554704645,1.041030031,-2.925468753
0.733534813,-0.526692271,-0.429560274,-0.088608682,0.13231492,0.036049902,0.519951284,-1.461958528,-0.819660723,0.554704645,1.041030031,-2.925468753
0.733534813,-0.526692271,-0.429560274,-0.088608682,0.13231492,0.036049902,0.519951284,-1.461958528,-0.819660723,0.554704645,1.041030031,-2.925468753
0.733534813,-0.526692271,-0.429560274,-0.088608682,0.13231492,0.036049902,0.519951284,-1.461958528,-0.819660723,0.554704645,1.041030031,-2.925468753
0.733534813,-0.526692271,-0.429560274,-0.088608682,0.13231492,0.036049902,0.519951284,-1.461958528,-0.819660723,0.554704645,1.041030031,-2.925468753
0.733534813,-0.526692271,-0.429560274,-0.088608682,0.13231492,0.036049902,0.519951284,-1.461958528,-0.819660723,0.554704645,1.041030031,-2.925468753
0.733534813,-0.526692271,-0.429560274,-0.088608682,0.13231492,0.036049902,0.519951284,-1.461958528,-0.819660723,0.554704645,1.041030031,-2.925468753
0.733534813,-0.526692271,-0.429560274,-0.088608682,0.13231492,0.036049902,0.519951284,-1.461958528,-0.819660723,0.554704645,1.041030031,-2.925468753
0.733534813,-0.526692271,-0.429560274,-0.088608682,0.13231492,0.036049902,0.519951284,-1.461958528,-0.819660723,0.554704645,1.041030031,-2.925468753
0.733534813,-0.526692271,-0.429560274,-0.088608682,0.13231492,0.036049902,0.519951284,-1.461958528,-0.819660723,0.554704645,1.041030031,-2.925468753
0.733534813,-0.526692271,-0.429560274,-0.088608682,0.13231492,0.036049902,0.519951284,-1.461958528,-0.819660723,0.554704645,1.041030031,-2.925468753
0.732133746,-0.527097166,-0.431449741,-0.312854588,0.295699,-0.050637901,1.716585517,-0.105010837,-0.53892231,0.555181032,1.038278269,-2.984763789
0.732133746,-0.527097166,-0.431449741,-0.312854588,0.295699,-0.050637901,1.716585517,-0.105010837,-0.53892231,0.555181032,1.038278269,-2.984763789
0.732133746,-0.527097166,-0.431449741,-0.312854588,0.295699,-0.050637901,1.716585517,-0.105010837,-0.53892231,0.555181032,1.038278269,-2.984763789
0.732133746,-0.527097166,-0.431449741,-0.312854588,0.295699,-0.050637901,1.716585517,-0.105010837,-0.53892231,0.555181032,1.038278269,-2.984763789
0.732133746,-0.527097166,-0.431449741,-0.312854588,0.295699,-0.050637901,1.716585517,-0.105010837,-0.53892231,0.555181032,1.038278269,-2.984763789
0.732133746,-0.527097166,-0.431449741,-0.312854588,0.295699,-0.050637901,1.716585517,-0.105010837,-0.53892231,0.555181032,1.038278269,-2.984763789
0.732133746,-0.527097166,-0.431449741,-0.312854588,0.295699,-0.050637901,1.716585517,-0.105010837,-0.53892231,0.555181032,1.038278269,-2.984763789
0.732133746,-0.527097166,-0.431449741,-0.312854588,0.295699,-0.050637901,1.716585517,-0.105010837,-0.53892231,0.555181032,1.038278269,-2.984763789
0.732133746,-0.527097166,-0.431449741,-0.312854588,0.295699,-0.050637901,1.716585517,-0.105010837,-0.53892231,0.555181032,1.038278269,-2.984763789
0.732133746,-0.527097166,-0.431449741,-0.312854588,0.295699,-0.050637901,1.716585517,-0.105010837,-0.53892231,0.555181032,1.038278269,-2.984763789
0.732133746,-0.527097166,-0.431449741,-0.312854588,0.295699,-0.050637901,1.716585517,-0.105010837,-0.53892231,0.555181032,1.038278269,-2.984763789
0.732133746,-0.527097166,-0.431449741,-0.312854588,0.295699,-0.050637901,1.716585517,-0.105010837,-0.53892231,0.555181032,1.038278269,-2.984763789
0.732133746,-0.527097166,-0.431449741,-0.312854588,0.295699,-0.050637901,1.716585517,-0.105010837,-0.53892231,0.555181032,1.038278269,-2.984763789
0.732133746,-0.527097166,-0.431449741,-0.312854588,0.295699,-0.050637901,1.716585517,-0.105010837,-0.53892231,0.555181032,1.038278269,-2.984763789
0.732133746,-0.527097166,-0.431449741,-0.312854588,0.295699,-0.050637901,1.716585517,-0.105010837,-0.53892231,0.555181032,1.038278269,-2.984763789
0.739783645,-0.541873276,-0.398865372,0.030767858,0.069249094,-0.164109349,1.624246001,-0.488889098,-0.482806683,0.572664364,1.076309841,-3.068670318
0.739783645,-0.541873276,-0.398865372,0.030767858,0.069249094,-0.164109349,1.624246001,-0.488889098,-0.482806683,0.572664364,1.076309841,-3.068670318
0.739783645,-0.541873276,-0.398865372,0.030767858,0.069249094,-0.164109349,1.624246001,-0.488889098,-0.482806683,0.572664364,1.076309841,-3.068670318
0.739783645,-0.541873276,-0.398865372,0.030767858,0.069249094,-0.164109349,1.624246001,-0.488889098,-0.482806683,0.572664364,1.076309841,-3.068670318
0.739783645,-0.541873276,-0.398865372,0.030767858,0.069249094,-0.164109349,1.624246001,-0.488889098,-0.482806683,0.572664364,1.076309841,-3.068670318
0.739783645,-0.541873276,-0.398865372,0.030767858,0.069249094,-0.164109349,1.624246001,-0.488889098,-0.482806683,0.572664364,1.076309841,-3.068670318
0.739783645,-0.541873276,-0.398865372,0.030767858,0.069249094,-0.164109349,1.624246001,-0.488889098,-0.482806683,0.572664364,1.076309841,-3.068670318
0.739783645,-0.541873276,-0.398865372,0.030767858,0.069249094,-0.164109349,1.624246001,-0.488889098,-0.482806683,0.572664364,1.076309841,-3.068670318
0.739783645,-0.541873276,-0.398865372,0.030767858,0.069249094,-0.164109349,1.624246001,-0.488889098,-0.482806683,0.572664364,1.076309841,-3.068670318
0.739783645,-0.541873276,-0.398865372,0.030767858,0.069249094,-0.164109349,1.624246001,-0.488889098,-0.482806683,0.572664364,1.076309841,-3.068670318
0.742163718,-0.542568326,-0.393462479,-0.224206269,-0.204515696,-0.179796696,-0.087643079,-0.264705867,-0.25585857,0.573491585,1.083316059,-3.110266001
0.742163718,-0.542568326,-0.393462479,-0.224206269,-0.204515696,-0.179796696,-0.087643079,-0.264705867,-0.25585857,0.573491585,1.083316059,-3.110266001
0.742163718,-0.542568326,-0.393462479,-0.224206269,-0.204515696,-0.179796696,-0.087643079,-0.264705867,-0.25585857,0.573491585,1.083316059,-3.110266001
0.742163718,-0.542568326,-0.393462479,-0.224206269,-0.204515696,-0.179796696,-0.087643079,-0.264705867,-0.25585857,0.573491585,1.083316059,-3.110266001
0.742163718,-0.542568326,-0.393462479,-0.224206269,-0.204515696,-0.179796696,-0.087643079,-0.264705867,-0.25585857,0.573491585,1.083316059,-3.110266001
0.742163718,-0.542568326,-0.393462479,-0.224206269,-0.204515696,-0.179796696,-0.087643079,-0.264705867,-0.25585857,0.573491585,1.083316059,-3.110266001
0.742163718,-0.542568326,-0.393462479,-0.224206269,-0.204515696,-0.179796696,-0.087643079,-0.264705867,-0.25585857,0.573491585,1.083316059,-3.110266001
0.742163718,-0.542568326,-0.393462479,-0.224206269,-0.204515696,-0.179796696,-0.087643079,-0.264705867,-0.25585857,0.573491585,1.083316059,-3.110266001
0.742163718,-0.542568326,-0.393462479,-0.224206269,-0.204515696,-0.179796696,-0.087643079,-0.264705867,-0.25585857,0.573491585,1.083316059,-3.110266001
0.742163718,-0.542568326,-0.393462479,-0.224206269,-0.204515696,-0.179796696,-0.087643079,-0.264705867,-0.25585857,0.573491585,1.083316059,-3.110266001
0.742163718,-0.542568326,-0.393462479,-0.224206269,-0.204515696,-0.179796696,-0.087643079,-0.264705867,-0.25585857,0.573491585,1.083316059,-3.110266001
0.742163718,-0.542568326,-0.393462479,-0.224206269,-0.204515696,-0.179796696,-0.087643079,-0.264705867,-0.25585857,0.573491585,1.083316059,-3.110266001
0.742163718,-0.542568326,-0.393462479,-0.224206269,-0.204515696,-0.179796696,-0.087643079,-0.264705867,-0.25585857,0.573491585,1.083316059,-3.110266001
0.742163718,-0.542568326,-0.393462479,-0.224206269,-0.204515696,-0.179796696,-0.087643079,-0.264705867,-0.25585857,0.573491585,1.083316059,-3.110266001
0.743161619,-0.525861919,-0.413739264,-0.119063973,-0.206299067,0.217189133,-1.37912786,-0.127040893,-0.051857658,0.553728164,1.062801937,-3.084076331
0.743161619,-0.525861919,-0.413739264,-0.119063973,-0.206299067,0.217189133,-1.37912786,-0.127040893,-0.051857658,0.553728164,1.062801937,-3.084076331
0.743161619,-0.525861919,-0.413739264,-0.119063973,-0.206299067,0.217189133,-1.37912786,-0.127040893,-0.051857658,0.553728164,1.062801937,-3.084076331
0.743161619,-0.525861919,-0.413739264,-0.119063973,-0.206299067,0.217189133,-1.37912786,-0.127040893,-0.051857658,0.553728164,1.062801937,-3.084076331
0.743161619,-0.525861919,-0.413739264,-0.119063973,-0.206299067,0.217189133,-1.37912786,-0.127040893,-0.051857658,0.553728164,1.062801937,-3.084076331
0.743161619,-0.525861919,-0.413739264,-0.119063973,-0.206299067,0.217189133,-1.37912786,-0.127040893,-0.051857658,0.553728164,1.062801937,-3.084076331
0.743161619,-0.525861919,-0.413739264,-0.119063973,-0.206299067,0.217189133,-1.37912786,-0.127040893,-0.051857658,0.553728164,1.062801937,-3.084076331
0.743161619,-0.525861919,-0.413739264,-0.119063973,-0.206299067,0.217189133,-1.37912786,-0.127040893,-0.051857658,0.553728164,1.062801937,-3.084076331
0.743161619,-0.525861919,-0.413739264,-0.119063973,-0.206299067,0.217189133,-1.37912786,-0.127040893,-0.051857658,0.553728164,1.062801937,-3.084076331
0.743161619,-0.525861919,-0.413739264,-0.119063973,-0.206299067,0.217189133,-1.37912786,-0.127040893,-0.051857658,0.553728164,1.062801937,-3.084076331
0.738807499,-0.494454861,-0.457906008,-0.256067276,-0.294789344,0.102389991,-2.950243473,0.203673348,0.465262592,0.517207547,1.015951803,-2.992421555
0.738807499,-0.494454861,-0.457906008,-0.256067276,-0.294789344,0.102389991,-2.950243473,0.203673348,0.465262592,0.517207547,1.015951803,-2.992421555
0.738807499,-0.494454861,-0.457906008,-0.256067276,-0.294789344,0.102389991,-2.950243473,0.203673348,0.465262592,0.517207547,1.015951803,-2.992421555
0.738807499,-0.494454861,-0.457906008,-0.256067276,-0.294789344,0.102389991,-2.950243473,0.203673348,0.465262592,0.517207547,1.015951803,-2.992421555
0.738807499,-0.494454861,-0.457906008,-0.256067276,-0.294789344,0.102389991,-2.950243473,0.203673348,0.465262592,0.517207547,1.015951803,-2.992421555
0.738807499,-0.494454861,-0.457906008,-0.256067276,-0.294789344,0.102389991,-2.950243473,0.203673348,0.465262592,0.517207547,1.015951803,-2.992421555
0.738807499,-0.494454861,-0.457906008,-0.256067276,-0.294789344,0.102389991,-2.950243473,0.203673348,0.465262592,0.517207547,1.015951803,-2.992421555
0.738807499,-0.494454861,-0.457906008,-0.256067276,-0.294789344,0.102389991,-2.950243473,0.203673348,0.465262592,0.517207547,1.015951803,-2.992421555
0.734506488,-0.455893308,-0.502654433,-0.193767607,-0.099281192,0.046766222,-2.874381542,0.601407051,0.905860543,0.473375648,0.970655833,-2.85481187
0.734506488,-0.455893308,-0.502654433,-0.193767607,-0.099281192,0.046766222,-2.874381542,0.601407051,0.905860543,0.473375648,0.970655833,-2.85481187
0.734506488,-0.455893308,-0.502654433,-0.193767607,-0.099281192,0.046766222,-2.874381542,0.601407051,0.905860543,0.473375648,0.970655833,-2.85481187
0.734506488,-0.455893308,-0.502654433,-0.193767607,-0.099281192,0.046766222,-2.874381542,0.601407051,0.905860543,0.473375648,0.970655833,-2.85481187
0.734506488,-0.455893308,-0.502654433,-0.193767607,-0.099281192,0.046766222,-2.874381542,0.601407051,0.905860543,0.473375648,0.970655833,-2.85481187
0.734506488,-0.455893308,-0.502654433,-0.193767607,-0.099281192,0.046766222,-2.874381542,0.601407051,0.905860543,0.473375648,0.970655833,-2.85481187
0.734506488,-0.455893308,-0.502654433,-0.193767607,-0.099281192,0.046766222,-2.874381542,0.601407051,0.905860543,0.473375648,0.970655833,-2.85481187
0.734506488,-0.455893308,-0.502654433,-0.193767607,-0.099281192,0.046766222,-2.874381542,0.601407051,0.905860543,0.473375648,0.970655833,-2.85481187
0.734506488,-0.455893308,-0.502654433,-0.193767607,-0.099281192,0.046766222,-2.874381542,0.601407051,0.905860543,0.473375648,0.970655833,-2.85481187
0.734506488,-0.455893308,-0.502654433,-0.193767607,-0.099281192,0.046766222,-2.874381542,0.601407051,0.905860543,0.473375648,0.970655833,-2.85481187
0.734506488,-0.455893308,-0.502654433,-0.193767607,-0.099281192,0.046766222,-2.874381542,0.601407051,0.905860543,0.473375648,0.970655833,-2.85481187
0.734506488,-0.455893308,-0.502654433,-0.193767607,-0.099281192,0.046766222,-2.874381542,0.601407051,0.905860543,0.473375648,0.970655833,-2.85481187
0.733243108,-0.42912221,-0.527455032,0.06105113,0.058502674,0.226458788,-2.36539793,0.646386623,0.769318104,0.44352074,0.947204535,-2.741326629
0.733243108,-0.42912221,-0.527455032,0.06105113,0.058502674,0.226458788,-2.36539793,0.646386623,0.769318104,0.44352074,0.947204535,-2.741326629
0.733243108,-0.42912221,-0.527455032,0.06105113,0.058502674,0.226458788,-2.36539793,0.646386623,0.769318104,0.44352074,0.947204535,-2.741326629
0.733243108,-0.42912221,-0.527455032,0.06105113,0.058502674,0.226458788,-2.36539793,0.646386623,0.769318104,0.44352074,0.947204535,-2.741326629
0.733243108,-0.42912221,-0.527455032,0.06105113,0.058502674,0.226458788,-2.36539793,0.646386623,0.769318104,0.44352074,0.947204535,-2.741326629
0.733243108,-0.42912221,-0.527455032,0.06105113,0.058502674,0.226458788,-2.36539793,0.646386623,0.769318104,0.44352074,0.947204535,-2.741326629
0.733243108,-0.42912221,-0.527455032,0.06105113,0.058502674,0.226458788,-2.36539793,0.646386623,0.769318104,0.44352074,0.947204535,-2.741326629
0.733243108,-0.42912221,-0.527455032,0.06105113,0.058502674,0.226458788,-2.36539793,0.646386623,0.769318104,0.44352074,0.947204535,-2.741326629
0.733243108,-0.42912221,-0.527455032,0.06105113,0.058502674,0.226458788,-2.36539793,0.646386623,0.769318104,0.44352074,0.947204535,-2.741326629
0.733243108,-0.42912221,-0.527455032,0.06105113,0.058502674,0.226458788,-2.36539793,0.646386623,0.769318104,0.44352074,0.947204535,-2.741326629
0.733243108,-0.42912221,-0.527455032,0.06105113,0.058502674,0.226458788,-2.36539793,0.646386623,0.769318104,0.44352074,0.947204535,-2.741326629
0.733243108,-0.42912221,-0.527455032,0.06105113,0.058502674,0.226458788,-2.36539793,0.646386623,0.769318104,0.44352074,0.947204535,-2.741326629
0.734459341,-0.39247945,-0.553651154,0.057942629,-0.243368357,0.054107547,-2.928743362,0.659361839,0.576138616,0.403325804,0.924854045,-2.632998556
0.734459341,-0.39247945,-0.553651154,0.057942629,-0.243368357,0.054107547,-2.928743362,0.659361839,0.576138616,0.403325804,0.924854045,-2.632998556
0.734459341,-0.39247945,-0.553651154,0.057942629,-0.243368357,0.054107547,-2.928743362,0.659361839,0.576138616,0.403325804,0.924854045,-2.632998556
0.734459341,-0.39247945,-0.553651154,0.057942629,-0.243368357,0.054107547,-2.928743362,0.659361839,0.576138616,0.403325804,0.924854045,-2.632998556
0.734459341,-0.39247945,-0.553651154,0.057942629,-0.243368357,0.054107547,-2.928743362,0.659361839,0.576138616,0.403325804,0.924854045,-2.632998556
0.734459341,-0.39247945,-0.553651154,0.057942629,-0.243368357,0.054107547,-2.928743362,0.659361839,0.576138616,0.403325804,0.924854045,-2.632998556
0.734459341,-0.39247945,-0.553651154,0.057942629,-0.243368357,0.054107547,-2.928743362,0.659361839,0.576138616,0.403325804,0.924854045,-2.632998556
0.734459341,-0.39247945,-0.553651154,0.057942629,-0.243368357,0.054107547,-2.928743362,0.659361839,0.576138616,0.403325804,0.924854045,-2.632998556
0.734459341,-0.39247945,-0.553651154,0.057942629,-0.243368357,0.054107547,-2.928743362,0.659361839,0.576138616,0.403325804,0.924854045,-2.632998556
0.734459341,-0.39247945,-0.553651154,0.057942629,-0.243368357,0.054107547,-2.928743362,0.659361839,0.576138616,0.403325804,0.924854045,-2.632998556
0.734459341,-0.39247945,-0.553651154,0.057942629,-0.243368357,0.054107547,-2.928743362,0.659361839,0.576138616,0.403325804,0.924854045,-2.632998556
0.738863409,-0.351838052,-0.574709415,0.020274162,0.13566798,0.019547522,-1.843600631,0.324813604,0.594934285,0.359534,0.909721189,-2.537286818
0.738863409,-0.351838052,-0.574709415,0.020274162,0.13566798,0.019547522,-1.843600631,0.324813604,0.594934285,0.359534,0.909721189,-2.537286818
0.738863409,-0.351838052,-0.574709415,0.020274162,0.13566798,0.019547522,-1.843600631,0.324813604,0.594934285,0.359534,0.909721189,-2.537286818
0.738863409,-0.351838052,-0.574709415,0.020274162,0.13566798,0.019547522,-1.843600631,0.324813604,0.594934285,0.359534,0.909721189,-2.537286818
0.738863409,-0.351838052,-0.574709415,0.020274162,0.13566798,0.019547522,-1.843600631,0.324813604,0.594934285,0.359534,0.909721189,-2.537286818
0.738863409,-0.351838052,-0.574709415,0.020274162,0.13566798,0.019547522,-1.843600631,0.324813604,0.594934285,0.359534,0.909721189,-2.537286818
0.738863409,-0.351838052,-0.574709415,0.020274162,0.13566798,0.019547522,-1.843600631,0.324813604,0.594934285,0.359534,0.909721189,-2.537286818
0.738863409,-0.351838052,-0.574709415,0.020274162,0.13566798,0.019547522,-1.843600631,0.324813604,0.594934285,0.359534,0.909721189,-2.537286818
0.738863409,-0.351838052,-0.574709415,0.020274162,0.13566798,0.019547522,-1.843600631,0.324813604,0.594934285,0.359534,0.909721189,-2.537286818
0.738863409,-0.351838052,-0.574709415,0.020274162,0.13566798,0.019547522,-1.843600631,0.324813604,0.594934285,0.359534,0.909721189,-2.537286818
0.738863409,-0.351838052,-0.574709415,0.020274162,0.13566798,0.019547522,-1.843600631,0.324813604,0.594934285,0.359534,0.909721189,-2.537286818
0.738863409,-0.351838052,-0.574709415,0.020274162,0.13566798,0.019547522,-1.843600631,0.324813604,0.594934285,0.359534,0.909721189,-2.537286818
0.738863409,-0.351838052,-0.574709415,0.020274162,0.13566798,0.019547522,-1.843600631,0.324813604,0.594934285,0.359534,0.909721189,-2.537286818
0.741300702,-0.329509586,-0.584719479,-0.007569075,-0.109087944,0.103410125,-2.401896954,0.808927178,0.737954617,0.335784102,0.902937457,-2.451373397
0.741300702,-0.329509586,-0.584719479,-0.007569075,-0.109087944,0.103410125,-2.401896954,0.808927178,0.737954617,0.335784102,0.902937457,-2.451373397
0.741300702,-0.329509586,-0.584719479,-0.007569075,-0.109087944,0.103410125,-2.401896954,0.808927178,0.737954617,0.335784102,0.902937457,-2.451373397
0.741300702,-0.329509586,-0.584719479,-0.007569075,-0.109087944,0.103410125,-2.401896954,0.808927178,0.737954617,0.335784102,0.902937457,-2.451373397
0.741300702,-0.329509586,-0.584719479,-0.007569075,-0.109087944,0.103410125,-2.401896954,0.808927178,0.737954617,0.335784102,0.902937457,-2.451373397
0.741300702,-0.329509586,-0.584719479,-0.007569075,-0.109087944,0.103410125,-2.401896954,0.808927178,0.737954617,0.335784102,0.902937457,-2.451373397
0.741300702,-0.329509586,-0.584719479,-0.007569075,-0.109087944,0.103410125,-2.401896954,0.808927178,0.737954617,0.335784102,0.902937457,-2.451373397
0.741300702,-0.329509586,-0.584719479,-0.007569075,-0.109087944,0.103410125,-2.401896954,0.808927178,0.737954617,0.335784102,0.902937457,-2.451373397
0.741300702,-0.329509586,-0.584719479,-0.007569075,-0.109087944,0.103410125,-2.401896954,0.808927178,0.737954617,0.335784102,0.902937457,-2.451373397
0.741300702,-0.329509586,-0.584719479,-0.007569075,-0.109087944,0.103410125,-2.401896954,0.808927178,0.737954617,0.335784102,0.902937457,-2.451373397
0.748961151,-0.300352275,-0.590631783,0.094069242,0.12177965,0.040154338,-0.38848865,0.071041346,0.336092204,0.305061971,0.903044537,-2.380119617
0.748961151,-0.300352275,-0.590631783,0.094069242,0.12177965,0.040154338,-0.38848865,0.071041346,0.336092204,0.305061971,0.903044537,-2.380119617
0.748961151,-0.300352275,-0.590631783,0.094069242,0.12177965,0.040154338,-0.38848865,0.071041346,0.336092204,0.305061971,0.903044537,-2.380119617
0.748961151,-0.300352275,-0.590631783,0.094069242,0.12177965,0.040154338,-0.38848865,0.071041346,0.336092204,0.305061971,0.903044537,-2.380119617
0.748961151,-0.300352275,-0.590631783,0.094069242,0.12177965,0.040154338,-0.38848865,0.071041346,0.336092204,0.305061971,0.903044537,-2.380119617
0.748961151,-0.300352275,-0.590631783,0.094069242,0.12177965,0.040154338,-0.38848865,0.071041346,0.336092204,0.305061971,0.903044537,-2.380119617
0.748961151,-0.300352275,-0.590631783,0.094069242,0.12177965,0.040154338,-0.38848865,0.071041346,0.336092204,0.305061971,0.903044537,-2.380119617
0.748961151,-0.300352275,-0.590631783,0.094069242,0.12177965,0.040154338,-0.38848865,0.071041346,0.336092204,0.305061971,0.903044537,-2.380119617
0.748961151,-0.300352275,-0.590631783,0.094069242,0.12177965,0.040154338,-0.38848865,0.071041346,0.336092204,0.305061971,0.903044537,-2.380119617
0.734469533,-0.358707637,-0.576093137,0.268884957,-0.176126957,0.017864227,0.985511303,-1.08309865,-0.528807521,0.366883031,0.905661071,-2.467994177
0.734469533,-0.358707637,-0.576093137,0.268884957,-0.176126957,0.017864227,0.985511303,-1.08309865,-0.528807521,0.366883031,0.905661071,-2.467994177
0.734469533,-0.358707637,-0.576093137,0.268884957,-0.176126957,0.017864227,0.985511303,-1.08309865,-0.528807521,0.366883031,0.905661071,-2.467994177
0.734469533,-0.358707637,-0.576093137,0.268884957,-0.176126957,0.017864227,0.985511303,-1.08309865,-0.528807521,0.366883031,0.905661071,-2.467994177
0.734469533,-0.358707637,-0.576093137,0.268884957,-0.176126957,0.017864227,0.985511303,-1.08309865,-0.528807521,0.366883031,0.905661071,-2.467994177
0.734469533,-0.358707637,-0.576093137,0.268884957,-0.176126957,0.017864227,0.985511303,-1.08309865,-0.528807521,0.366883031,0.905661071,-2.467994177
0.734469533,-0.358707637,-0.576093137,0.268884957,-0.176126957,0.017864227,0.985511303,-1.08309865,-0.528807521,0.366883031,0.905661071,-2.467994177
0.734469533,-0.358707637,-0.576093137,0.268884957,-0.176126957,0.017864227,0.985511303,-1.08309865,-0.528807521,0.366883031,0.905661071,-2.467994177
0.734469533,-0.358707637,-0.576093137,0.268884957,-0.176126957,0.017864227,0.985511303,-1.08309865,-0.528807521,0.366883031,0.905661071,-2.467994177
0.713415623,-0.378894448,-0.589472115,-0.083824813,0.32472688,-0.126791954,2.737428904,-1.178115129,-0.436471283,0.388601386,0.880242593,-2.536243109
0.713415623,-0.378894448,-0.589472115,-0.083824813,0.32472688,-0.126791954,2.737428904,-1.178115129,-0.436471283,0.388601386,0.880242593,-2.536243109
0.713415623,-0.378894448,-0.589472115,-0.083824813,0.32472688,-0.126791954,2.737428904,-1.178115129,-0.436471283,0.388601386,0.880242593,-2.536243109
0.713415623,-0.378894448,-0.589472115,-0.083824813,0.32472688,-0.126791954,2.737428904,-1.178115129,-0.436471283,0.388601386,0.880242593,-2.536243109
0.713415623,-0.378894448,-0.589472115,-0.083824813,0.32472688,-0.126791954,2.737428904,-1.178115129,-0.436471283,0.388601386,0.880242593,-2.536243109
0.713415623,-0.378894448,-0.589472115,-0.083824813,0.32472688,-0.126791954,2.737428904,-1.178115129,-0.436471283,0.388601386,0.880242593,-2.536243109
0.719485641,-0.493764997,-0.488402098,0.079752147,-0.262565792,0.012692392,-2.770252943,0.76924336,0.437844455,0.516414043,0.974426175,-2.67131833
0.719485641,-0.493764997,-0.488402098,0.079752147,-0.262565792,0.012692392,-2.770252943,0.76924336,0.437844455,0.516414043,0.974426175,-2.67131833
0.719485641,-0.493764997,-0.488402098,0.079752147,-0.262565792,0.012692392,-2.770252943,0.76924336,0.437844455,0.516414043,0.974426175,-2.67131833
0.719485641,-0.493764997,-0.488402098,0.079752147,-0.262565792,0.012692392,-2.770252943,0.76924336,0.437844455,0.516414043,0.974426175,-2.67131833
0.719485641,-0.493764997,-0.488402098,0.079752147,-0.262565792,0.012692392,-2.770252943,0.76924336,0.437844455,0.516414043,0.974426175,-2.67131833
0.719485641,-0.493764997,-0.488402098,0.079752147,-0.262565792,0.012692392,-2.770252943,0.76924336,0.437844455,0.516414043,0.974426175,-2.67131833
0.721351683,-0.447740912,-0.528374851,0.042607963,0.06169489,0.122108161,-2.734946251,0.322749019,0.379769117,0.464237239,0.938603374,-2.558241981
0.721351683,-0.447740912,-0.528374851,0.042607963,0.06169489,0.122108161,-2.734946251,0.322749019,0.379769117,0.464237239,0.938603374,-2.558241981
0.721351683,-0.447740912,-0.528374851,0.042607963,0.06169489,0.122108161,-2.734946251,0.322749019,0.379769117,0.464237239,0.938603374,-2.558241981
0.721351683,-0.447740912,-0.528374851,0.042607963,0.06169489,0.122108161,-2.734946251,0.322749019,0.379769117,0.464237239,0.938603374,-2.558241981
0.721351683,-0.447740912,-0.528374851,0.042607963,0.06169489,0.122108161,-2.734946251,0.322749019,0.379769117,0.464237239,0.938603374,-2.558241981
0.721351683,-0.447740912,-0.528374851,0.042607963,0.06169489,0.122108161,-2.734946251,0.322749019,0.379769117,0.464237239,0.938603374,-2.558241981
0.721351683,-0.447740912,-0.528374851,0.042607963,0.06169489,0.122108161,-2.734946251,0.322749019,0.379769117,0.464237239,0.938603374,-2.558241981
0.721351683,-0.447740912,-0.528374851,0.042607963,0.06169489,0.122108161,-2.734946251,0.322749019,0.379769117,0.464237239,0.938603374,-2.558241981
0.721351683,-0.447740912,-0.528374851,0.042607963,0.06169489,0.122108161,-2.734946251,0.322749019,0.379769117,0.464237239,0.938603374,-2.558241981
0.721351683,-0.447740912,-0.528374851,0.042607963,0.06169489,0.122108161,-2.734946251,0.322749019,0.379769117,0.464237239,0.938603374,-2.558241981
0.721351683,-0.447740912,-0.528374851,0.042607963,0.06169489,0.122108161,-2.734946251,0.322749019,0.379769117,0.464237239,0.938603374,-2.558241981
0.721351683,-0.447740912,-0.528374851,0.042607963,0.06169489,0.122108161,-2.734946251,0.322749019,0.379769117,0.464237239,0.938603374,-2.558241981
0.729049325,-0.397003829,-0.557561755,-0.08275038,-0.108625352,0.028644919,-3.212989569,1.059298992,0.455893427,0.408250086,0.917903431,-2.442485377
0.729049325,-0.397003829,-0.557561755,-0.08275038,-0.108625352,0.028644919,-3.212989569,1.059298992,0.455893427,0.408250086,0.917903431,-2.442485377
0.729049325,-0.397003829,-0.557561755,-0.08275038,-0.108625352,0.028644919,-3.212989569,1.059298992,0.455893427,0.408250086,0.917903431,-2.442485377
0.729049325,-0.397003829,-0.557561755,-0.08275038,-0.108625352,0.028644919,-3.212989569,1.059298992,0.455893427,0.408250086,0.917903431,-2.442485377
0.729049325,-0.397003829,-0.557561755,-0.08275038,-0.108625352,0.028644919,-3.212989569,1.059298992,0.455893427,0.408250086,0.917903431,-2.442485377
0.729049325,-0.397003829,-0.557561755,-0.08275038,-0.108625352,0.028644919,-3.212989569,1.059298992,0.455893427,0.408250086,0.917903431,-2.442485377
0.729049325,-0.397003829,-0.557561755,-0.08275038,-0.108625352,0.028644919,-3.212989569,1.059298992,0.455893427,0.408250086,0.917903431,-2.442485377
0.729049325,-0.397003829,-0.557561755,-0.08275038,-0.108625352,0.028644919,-3.212989569,1.059298992,0.455893427,0.408250086,0.917903431,-2.442485377
0.729049325,-0.397003829,-0.557561755,-0.08275038,-0.108625352,0.028644919,-3.212989569,1.059298992,0.455893427,0.408250086,0.917903431,-2.442485377
0.729049325,-0.397003829,-0.557561755,-0.08275038,-0.108625352,0.028644919,-3.212989569,1.059298992,0.455893427,0.408250086,0.917903431,-2.442485377
0.729049325,-0.397003829,-0.557561755,-0.08275038,-0.108625352,0.028644919,-3.212989569,1.059298992,0.455893427,0.408250086,0.917903431,-2.442485377
0.729049325,-0.397003829,-0.557561755,-0.08275038,-0.108625352,0.028644919,-3.212989569,1.059298992,0.455893427,0.408250086,0.917903431,-2.442485377
0.729049325,-0.397003829,-0.557561755,-0.08275038,-0.108625352,0.028644919,-3.212989569,1.059298992,0.455893427,0.408250086,0.917903431,-2.442485377
0.729049325,-0.397003829,-0.557561755,-0.08275038,-0.108625352,0.028644919,-3.212989569,1.059298992,0.455893427,0.408250086,0.917903431,-2.442485377
0.729049325,-0.397003829,-0.557561755,-0.08275038,-0.108625352,0.028644919,-3.212989569,1.059298992,0.455893427,0.408250086,0.917903431,-2.442485377
0.729049325,-0.397003829,-0.557561755,-0.08275038,-0.108625352,0.028644919,-3.212989569,1.059298992,0.455893427,0.408250086,0.917903431,-2.442485377
0.729049325,-0.397003829,-0.557561755,-0.08275038,-0.108625352,0.028644919,-3.212989569,1.059298992,0.455893427,0.408250086,0.917903431,-2.442485377
0.744392455,-0.340577006,-0.574358106,0.037663639,0.049089581,0.107880116,-2.614430666,0.739797652,0.282221526,0.34753053,0.913626677,-2.334266399
0.744392455,-0.340577006,-0.574358106,0.037663639,0.049089581,0.107880116,-2.614430666,0.739797652,0.282221526,0.34753053,0.913626677,-2.334266399
0.744392455,-0.340577006,-0.574358106,0.037663639,0.049089581,0.107880116,-2.614430666,0.739797652,0.282221526,0.34753053,0.913626677,-2.334266399
0.744392455,-0.340577006,-0.574358106,0.037663639,0.049089581,0.107880116,-2.614430666,0.739797652,0.282221526,0.34753053,0.913626677,-2.334266399
0.744392455,-0.340577006,-0.574358106,0.037663639,0.049089581,0.107880116,-2.614430666,0.739797652,0.282221526,0.34753053,0.913626677,-2.334266399
0.744392455,-0.340577006,-0.574358106,0.037663639,0.049089581,0.107880116,-2.614430666,0.739797652,0.282221526,0.34753053,0.913626677,-2.334266399
0.744392455,-0.340577006,-0.574358106,0.037663639,0.049089581,0.107880116,-2.614430666,0.739797652,0.282221526,0.34753053,0.913626677,-2.334266399
0.757193387,-0.283369035,-0.588523865,-0.044442356,-0.147858739,0.005865812,-2.95655632,0.660731494,0.161424473,0.287305335,0.91008595,-2.233669326
0.757193387,-0.283369035,-0.588523865,-0.044442356,-0.147858739,0.005865812,-2.95655632,0.660731494,0.161424473,0.287305335,0.91008595,-2.233669326
0.757193387,-0.283369035,-0.588523865,-0.044442356,-0.147858739,0.005865812,-2.95655632,0.660731494,0.161424473,0.287305335,0.91008595,-2.233669326
0.757193387,-0.283369035,-0.588523865,-0.044442356,-0.147858739,0.005865812,-2.95655632,0.660731494,0.161424473,0.287305335,0.91008595,-2.233669326
0.757193387,-0.283369035,-0.588523865,-0.044442356,-0.147858739,0.005865812,-2.95655632,0.660731494,0.161424473,0.287305335,0.91008595,-2.233669326
0.757193387,-0.283369035,-0.588523865,-0.044442356,-0.147858739,0.005865812,-2.95655632,0.660731494,0.161424473,0.287305335,0.91008595,-2.233669326
0.769816995,-0.235482812,-0.593236566,-0.127897382,0.074091315,0.067341089,-1.329431534,0.528611064,0.330186516,0.237715317,0.914228348,-2.153396685
0.769816995,-0.235482812,-0.593236566,-0.127897382,0.074091315,0.067341089,-1.329431534,0.528611064,0.330186516,0.237715317,0.914228348,-2.153396685
0.769816995,-0.235482812,-0.593236566,-0.127897382,0.074091315,0.067341089,-1.329431534,0.528611064,0.330186516,0.237715317,0.914228348,-2.153396685
0.769816995,-0.235482812,-0.593236566,-0.127897382,0.074091315,0.067341089,-1.329431534,0.528611064,0.330186516,0.237715317,0.914228348,-2.153396685
0.769816995,-0.235482812,-0.593236566,-0.127897382,0.074091315,0.067341089,-1.329431534,0.528611064,0.330186516,0.237715317,0.914228348,-2.153396685
0.769816995,-0.235482812,-0.593236566,-0.127897382,0.074091315,0.067341089,-1.329431534,0.528611064,0.330186516,0.237715317,0.914228348,-2.153396685
0.769816995,-0.235482812,-0.593236566,-0.127897382,0.074091315,0.067341089,-1.329431534,0.528611064,0.330186516,0.237715317,0.914228348,-2.153396685
0.775898397,-0.225058556,-0.589347422,-0.143836081,-0.005287379,0.087545514,-0.837182522,0.233508691,0.440422714,0.22700313,0.921199929,-2.114929879
0.775898397,-0.225058556,-0.589347422,-0.143836081,-0.005287379,0.087545514,-0.837182522,0.233508691,0.440422714,0.22700313,0.921199929,-2.114929879
0.775898397,-0.225058556,-0.589347422,-0.143836081,-0.005287379,0.087545514,-0.837182522,0.233508691,0.440422714,0.22700313,0.921199929,-2.114929879
0.772009075,-0.221289352,-0.595846653,-0.31421721,0.038962767,0.133015871,-1.161920309,0.006470404,0.99158895,0.223136405,0.913480432,-2.062570399
0.772009075,-0.221289352,-0.595846653,-0.31421721,0.038962767,0.133015871,-1.161920309,0.006470404,0.99158895,0.223136405,0.913480432,-2.062570399
0.772009075,-0.221289352,-0.595846653,-0.31421721,0.038962767,0.133015871,-1.161920309,0.006470404,0.99158895,0.223136405,0.913480432,-2.062570399
0.772009075,-0.221289352,-0.595846653,-0.31421721,0.038962767,0.133015871,-1.161920309,0.006470404,0.99158895,0.223136405,0.913480432,-2.062570399
0.772009075,-0.221289352,-0.595846653,-0.31421721,0.038962767,0.133015871,-1.161920309,0.006470404,0.99158895,0.223136405,0.913480432,-2.062570399
0.772009075,-0.221289352,-0.595846653,-0.31421721,0.038962767,0.133015871,-1.161920309,0.006470404,0.99158895,0.223136405,0.913480432,-2.062570399
0.772009075,-0.221289352,-0.595846653,-0.31421721,0.038962767,0.133015871,-1.161920309,0.006470404,0.99158895,0.223136405,0.913480432,-2.062570399
0.772009075,-0.221289352,-0.595846653,-0.31421721,0.038962767,0.133015871,-1.161920309,0.006470404,0.99158895,0.223136405,0.913480432,-2.062570399
0.772009075,-0.221289352,-0.595846653,-0.31421721,0.038962767,0.133015871,-1.161920309,0.006470404,0.99158895,0.223136405,0.913480432,-2.062570399
0.756044447,-0.24237293,-0.607990324,-0.413029194,0.219592303,0.217852354,-0.754816949,-0.142677516,1.986679196,0.244810958,0.893516244,-1.993335041
0.756044447,-0.24237293,-0.607990324,-0.413029194,0.219592303,0.217852354,-0.754816949,-0.142677516,1.986679196,0.244810958,0.893516244,-1.993335041
0.756044447,-0.24237293,-0.607990324,-0.413029194,0.219592303,0.217852354,-0.754816949,-0.142677516,1.986679196,0.244810958,0.893516244,-1.993335041
0.756044447,-0.24237293,-0.607990324,-0.413029194,0.219592303,0.217852354,-0.754816949,-0.142677516,1.986679196,0.244810958,0.893516244,-1.993335041
0.756044447,-0.24237293,-0.607990324,-0.413029194,0.219592303,0.217852354,-0.754816949,-0.142677516,1.986679196,0.244810958,0.893516244,-1.993335041
0.756044447,-0.24237293,-0.607990324,-0.413029194,0.219592303,0.217852354,-0.754816949,-0.142677516,1.986679196,0.244810958,0.893516244,-1.993335041
0.756044447,-0.24237293,-0.607990324,-0.413029194,0.219592303,0.217852354,-0.754816949,-0.142677516,1.986679196,0.244810958,0.893516244,-1.993335041
0.756044447,-0.24237293,-0.607990324,-0.413029194,0.219592303,0.217852354,-0.754816949,-0.142677516,1.986679196,0.244810958,0.893516244,-1.993335041
0.756044447,-0.24237293,-0.607990324,-0.413029194,0.219592303,0.217852354,-0.754816949,-0.142677516,1.986679196,0.244810958,0.893516244,-1.993335041
0.756044447,-0.24237293,-0.607990324,-0.413029194,0.219592303,0.217852354,-0.754816949,-0.142677516,1.986679196,0.244810958,0.893516244,-1.993335041
0.715745747,-0.305497408,-0.627996385,-0.369358182,0.153459787,0.406666517,-0.518201351,-0.737357616,3.202240944,0.310460757,0.850607809,-1.903875038
0.715745747,-0.305497408,-0.627996385,-0.369358182,0.153459787,0.406666517,-0.518201351,-0.737357616,3.202240944,0.310460757,0.850607809,-1.903875038
0.715745747,-0.305497408,-0.627996385,-0.369358182,0.153459787,0.406666517,-0.518201351,-0.737357616,3.202240944,0.310460757,0.850607809,-1.903875038
0.715745747,-0.305497408,-0.627996385,-0.369358182,0.153459787,0.406666517,-0.518201351,-0.737357616,3.202240944,0.310460757,0.850607809,-1.903875038
0.715745747,-0.305497408,-0.627996385,-0.369358182,0.153459787,0.406666517,-0.518201351,-0.737357616,3.202240944,0.310460757,0.850607809,-1.903875038
0.715745747,-0.305497408,-0.627996385,-0.369358182,0.153459787,0.406666517,-0.518201351,-0.737357616,3.202240944,0.310460757,0.850607809,-1.903875038
0.715745747,-0.305497408,-0.627996385,-0.369358182,0.153459787,0.406666517,-0.518201351,-0.737357616,3.202240944,0.310460757,0.850607809,-1.903875038
0.715745747,-0.305497408,-0.627996385,-0.369358182,0.153459787,0.406666517,-0.518201351,-0.737357616,3.202240944,0.310460757,0.850607809,-1.903875038
0.636155367,-0.377407223,-0.672956288,-0.392459154,0.150327086,0.268887281,-2.038632393,-1.435892344,4.3297472,0.386994869,0.757294221,-1.755193169
0.636155367,-0.377407223,-0.672956288,-0.392459154,0.150327086,0.268887281,-2.038632393,-1.435892344,4.3297472,0.386994869,0.757294221,-1.755193169
0.636155367,-0.377407223,-0.672956288,-0.392459154,0.150327086,0.268887281,-2.038632393,-1.435892344,4.3297472,0.386994869,0.757294221,-1.755193169
0.636155367,-0.377407223,-0.672956288,-0.392459154,0.150327086,0.268887281,-2.038632393,-1.435892344,4.3297472,0.386994869,0.757294221,-1.755193169
0.636155367,-0.377407223,-0.672956288,-0.392459154,0.150327086,0.268887281,-2.038632393,-1.435892344,4.3297472,0.386994869,0.757294221,-1.755193169
0.636155367,-0.377407223,-0.672956288,-0.392459154,0.150327086,0.268887281,-2.038632393,-1.435892344,4.3297472,0.386994869,0.757294221,-1.755193169
0.636155367,-0.377407223,-0.672956288,-0.392459154,0.150327086,0.268887281,-2.038632393,-1.435892344,4.3297472,0.386994869,0.757294221,-1.755193169
0.636155367,-0.377407223,-0.672956288,-0.392459154,0.150327086,0.268887281,-2.038632393,-1.435892344,4.3297472,0.386994869,0.757294221,-1.755193169
0.636155367,-0.377407223,-0.672956288,-0.392459154,0.150327086,0.268887281,-2.038632393,-1.435892344,4.3297472,0.386994869,0.757294221,-1.755193169
0.506651223,-0.407085806,-0.759990633,-0.318511784,0.209958613,0.284419298,-2.587060928,-2.567399502,4.76975441,0.41926125,0.587994242,-1.527626535
0.506651223,-0.407085806,-0.759990633,-0.318511784,0.209958613,0.284419298,-2.587060928,-2.567399502,4.76975441,0.41926125,0.587994242,-1.527626535
0.506651223,-0.407085806,-0.759990633,-0.318511784,0.209958613,0.284419298,-2.587060928,-2.567399502,4.76975441,0.41926125,0.587994242,-1.527626535
0.506651223,-0.407085806,-0.759990633,-0.318511784,0.209958613,0.284419298,-2.587060928,-2.567399502,4.76975441,0.41926125,0.587994242,-1.527626535
0.506651223,-0.407085806,-0.759990633,-0.318511784,0.209958613,0.284419298,-2.587060928,-2.567399502,4.76975441,0.41926125,0.587994242,-1.527626535
0.506651223,-0.407085806,-0.759990633,-0.318511784,0.209958613,0.284419298,-2.587060928,-2.567399502,4.76975441,0.41926125,0.587994242,-1.527626535
0.325220138,-0.442292839,-0.835828304,-0.311213553,0.166628897,0.410611153,-0.416687518,-3.345156193,5.1083498,0.458153543,0.371073974,-1.302009742
0.325220138,-0.442292839,-0.835828304,-0.311213553,0.166628897,0.410611153,-0.416687518,-3.345156193,5.1083498,0.458153543,0.371073974,-1.302009742
0.325220138,-0.442292839,-0.835828304,-0.311213553,0.166628897,0.410611153,-0.416687518,-3.345156193,5.1083498,0.458153543,0.371073974,-1.302009742
0.325220138,-0.442292839,-0.835828304,-0.311213553,0.166628897,0.410611153,-0.416687518,-3.345156193,5.1083498,0.458153543,0.371073974,-1.302009742
0.325220138,-0.442292839,-0.835828304,-0.311213553,0.166628897,0.410611153,-0.416687518,-3.345156193,5.1083498,0.458153543,0.371073974,-1.302009742
0.325220138,-0.442292839,-0.835828304,-0.311213553,0.166628897,0.410611153,-0.416687518,-3.345156193,5.1083498,0.458153543,0.371073974,-1.302009742
0.325220138,-0.442292839,-0.835828304,-0.311213553,0.166628897,0.410611153,-0.416687518,-3.345156193,5.1083498,0.458153543,0.371073974,-1.302009742
0.325220138,-0.442292839,-0.835828304,-0.311213553,0.166628897,0.410611153,-0.416687518,-3.345156193,5.1083498,0.458153543,0.371073974,-1.302009742
0.325220138,-0.442292839,-0.835828304,-0.311213553,0.166628897,0.410611153,-0.416687518,-3.345156193,5.1083498,0.458153543,0.371073974,-1.302009742
0.325220138,-0.442292839,-0.835828304,-0.311213553,0.166628897,0.410611153,-0.416687518,-3.345156193,5.1083498,0.458153543,0.371073974,-1.302009742
0.325220138,-0.442292839,-0.835828304,-0.311213553,0.166628897,0.410611153,-0.416687518,-3.345156193,5.1083498,0.458153543,0.371073974,-1.302009742
0.325220138,-0.442292839,-0.835828304,-0.311213553,0.166628897,0.410611153,-0.416687518,-3.345156193,5.1083498,0.458153543,0.371073974,-1.302009742
0.112241223,-0.480976462,-0.869519174,-0.302579701,-0.076700181,0.070217609,0.171185479,-3.44250226,5.003999233,0.501768128,0.128374363,-1.077235264
0.112241223,-0.480976462,-0.869519174,-0.302579701,-0.076700181,0.070217609,0.171185479,-3.44250226,5.003999233,0.501768128,0.128374363,-1.077235264
0.112241223,-0.480976462,-0.869519174,-0.302579701,-0.076700181,0.070217609,0.171185479,-3.44250226,5.003999233,0.501768128,0.128374363,-1.077235264
0.112241223,-0.480976462,-0.869519174,-0.302579701,-0.076700181,0.070217609,0.171185479,-3.44250226,5.003999233,0.501768128,0.128374363,-1.077235264
0.112241223,-0.480976462,-0.869519174,-0.302579701,-0.076700181,0.070217609,0.171185479,-3.44250226,5.003999233,0.501768128,0.128374363,-1.077235264
0.112241223,-0.480976462,-0.869519174,-0.302579701,-0.076700181,0.070217609,0.171185479,-3.44250226,5.003999233,0.501768128,0.128374363,-1.077235264
0.112241223,-0.480976462,-0.869519174,-0.302579701,-0.076700181,0.070217609,0.171185479,-3.44250226,5.003999233,0.501768128,0.128374363,-1.077235264
0.112241223,-0.480976462,-0.869519174,-0.302579701,-0.076700181,0.070217609,0.171185479,-3.44250226,5.003999233,0.501768128,0.128374363,-1.077235264
0.112241223,-0.480976462,-0.869519174,-0.302579701,-0.076700181,0.070217609,0.171185479,-3.44250226,5.003999233,0.501768128,0.128374363,-1.077235264
0.112241223,-0.480976462,-0.869519174,-0.302579701,-0.076700181,0.070217609,0.171185479,-3.44250226,5.003999233,0.501768128,0.128374363,-1.077235264
0.112241223,-0.480976462,-0.869519174,-0.302579701,-0.076700181,0.070217609,0.171185479,-3.44250226,5.003999233,0.501768128,0.128374363,-1.077235264
0.112241223,-0.480976462,-0.869519174,-0.302579701,-0.076700181,0.070217609,0.171185479,-3.44250226,5.003999233,0.501768128,0.128374363,-1.077235264
-0.103187025,-0.499927461,-0.859898269,-0.110313624,-0.089090675,-0.074413121,1.164715886,-3.689096451,4.777381897,0.52351503,-0.119428046,-0.847936132
-0.103187025,-0.499927461,-0.859898269,-0.110313624,-0.089090675,-0.074413121,1.164715886,-3.689096451,4.777381897,0.52351503,-0.119428046,-0.847936132
-0.103187025,-0.499927461,-0.859898269,-0.110313624,-0.089090675,-0.074413121,1.164715886,-3.689096451,4.777381897,0.52351503,-0.119428046,-0.847936132
-0.103187025,-0.499927461,-0.859898269,-0.110313624,-0.089090675,-0.074413121,1.164715886,-3.689096451,4.777381897,0.52351503,-0.119428046,-0.847936132
-0.103187025,-0.499927461,-0.859898269,-0.110313624,-0.089090675,-0.074413121,1.164715886,-3.689096451,4.777381897,0.52351503,-0.119428046,-0.847936132
-0.103187025,-0.499927461,-0.859898269,-0.110313624,-0.089090675,-0.074413121,1.164715886,-3.689096451,4.777381897,0.52351503,-0.119428046,-0.847936132
-0.311273098,-0.479424804,-0.820524871,-0.296910703,-0.691578865,-0.237489641,-0.531243861,-3.052762032,4.26358223,0.499999152,-0.362586353,-0.641337411
-0.311273098,-0.479424804,-0.820524871,-0.296910703,-0.691578865,-0.237489641,-0.531243861,-3.052762032,4.26358223,0.499999152,-0.362586353,-0.641337411
-0.311273098,-0.479424804,-0.820524871,-0.296910703,-0.691578865,-0.237489641,-0.531243861,-3.052762032,4.26358223,0.499999152,-0.362586353,-0.641337411
-0.311273098,-0.479424804,-0.820524871,-0.296910703,-0.691578865,-0.237489641,-0.531243861,-3.052762032,4.26358223,0.499999152,-0.362586353,-0.641337411
-0.311273098,-0.479424804,-0.820524871,-0.296910703,-0.691578865,-0.237489641,-0.531243861,-3.052762032,4.26358223,0.499999152,-0.362586353,-0.641337411
-0.311273098,-0.479424804,-0.820524871,-0.296910703,-0.691578865,-0.237489641,-0.531243861,-3.052762032,4.26358223,0.499999152,-0.362586353,-0.641337411
-0.311273098,-0.479424804,-0.820524871,-0.296910703,-0.691578865,-0.237489641,-0.531243861,-3.052762032,4.26358223,0.499999152,-0.362586353,-0.641337411
-0.46798858,-0.427653164,-0.773368955,-0.010784954,-0.156329811,-0.135368943,1.644491911,-2.920023918,2.686205387,0.441894945,-0.544182844,-0.494772481
-0.46798858,-0.427653164,-0.773368955,-0.010784954,-0.156329811,-0.135368943,1.644491911,-2.920023918,2.686205387,0.441894945,-0.544182844,-0.494772481
-0.46798858,-0.427653164,-0.773368955,-0.010784954,-0.156329811,-0.135368943,1.644491911,-2.920023918,2.686205387,0.441894945,-0.544182844,-0.494772481
-0.46798858,-0.427653164,-0.773368955,-0.010784954,-0.156329811,-0.135368943,1.644491911,-2.920023918,2.686205387,0.441894945,-0.544182844,-0.494772481
-0.46798858,-0.427653164,-0.773368955,-0.010784954,-0.156329811,-0.135368943,1.644491911,-2.920023918,2.686205387,0.441894945,-0.544182844,-0.494772481
-0.46798858,-0.427653164,-0.773368955,-0.010784954,-0.156329811,-0.135368943,1.644491911,-2.920023918,2.686205387,0.441894945,-0.544182844,-0.494772481
-0.46798858,-0.427653164,-0.773368955,-0.010784954,-0.156329811,-0.135368943,1.644491911,-2.920023918,2.686205387,0.441894945,-0.544182844,-0.494772481
-0.46798858,-0.427653164,-0.773368955,-0.010784954,-0.156329811,-0.135368943,1.644491911,-2.920023918,2.686205387,0.441894945,-0.544182844,-0.494772481
-0.46798858,-0.427653164,-0.773368955,-0.010784954,-0.156329811,-0.135368943,1.644491911,-2.920023918,2.686205387,0.441894945,-0.544182844,-0.494772481
-0.594348907,-0.422838122,-0.684074104,-0.427697957,-0.929256976,-0.414758205,0.876527607,-2.645942211,2.741741896,0.436574899,-0.715328766,-0.357567828
-0.594348907,-0.422838122,-0.684074104,-0.427697957,-0.929256976,-0.414758205,0.876527607,-2.645942211,2.741741896,0.436574899,-0.715328766,-0.357567828
-0.594348907,-0.422838122,-0.684074104,-0.427697957,-0.929256976,-0.414758205,0.876527607,-2.645942211,2.741741896,0.436574899,-0.715328766,-0.357567828
-0.594348907,-0.422838122,-0.684074104,-0.427697957,-0.929256976,-0.414758205,0.876527607,-2.645942211,2.741741896,0.436574899,-0.715328766,-0.357567828
-0.594348907,-0.422838122,-0.684074104,-0.427697957,-0.929256976,-0.414758205,0.876527607,-2.645942211,2.741741896,0.436574899,-0.715328766,-0.357567828
-0.594348907,-0.422838122,-0.684074104,-0.427697957,-0.929256976,-0.414758205,0.876527607,-2.645942211,2.741741896,0.436574899,-0.715328766,-0.357567828
-0.594348907,-0.422838122,-0.684074104,-0.427697957,-0.929256976,-0.414758205,0.876527607,-2.645942211,2.741741896,0.436574899,-0.715328766,-0.357567828
-0.594348907,-0.422838122,-0.684074104,-0.427697957,-0.929256976,-0.414758205,0.876527607,-2.645942211,2.741741896,0.436574899,-0.715328766,-0.357567828
-0.682285488,-0.382727593,-0.62290138,-0.039086401,-0.036857158,0.085744798,0.919173002,-1.531335831,1.21624434,0.392746877,-0.830865365,-0.276457498
-0.682285488,-0.382727593,-0.62290138,-0.039086401,-0.036857158,0.085744798,0.919173002,-1.531335831,1.21624434,0.392746877,-0.830865365,-0.276457498
-0.682285488,-0.382727593,-0.62290138,-0.039086401,-0.036857158,0.085744798,0.919173002,-1.531335831,1.21624434,0.392746877,-0.830865365,-0.276457498
-0.73050952,-0.400366157,-0.553229511,-0.121981204,-0.157798976,-0.048975468,3.028972387,-1.411673903,1.030746222,0.411916376,-0.922626837,-0.182266429
-0.73050952,-0.400366157,-0.553229511,-0.121981204,-0.157798976,-0.048975468,3.028972387,-1.411673903,1.030746222,0.411916376,-0.922626837,-0.182266429
-0.73050952,-0.400366157,-0.553229511,-0.121981204,-0.157798976,-0.048975468,3.028972387,-1.411673903,1.030746222,0.411916376,-0.922626837,-0.182266429
-0.73050952,-0.400366157,-0.553229511,-0.121981204,-0.157798976,-0.048975468,3.028972387,-1.411673903,1.030746222,0.411916376,-0.922626837,-0.182266429
-0.73050952,-0.400366157,-0.553229511,-0.121981204,-0.157798976,-0.048975468,3.028972387,-1.411673903,1.030746222,0.411916376,-0.922626837,-0.182266429
-0.73050952,-0.400366157,-0.553229511,-0.121981204,-0.157798976,-0.048975468,3.028972387,-1.411673903,1.030746222,0.411916376,-0.922626837,-0.182266429
-0.73050952,-0.400366157,-0.553229511,-0.121981204,-0.157798976,-0.048975468,3.028972387,-1.411673903,1.030746222,0.411916376,-0.922626837,-0.182266429
-0.73050952,-0.400366157,-0.553229511,-0.121981204,-0.157798976,-0.048975468,3.028972387,-1.411673903,1.030746222,0.411916376,-0.922626837,-0.182266429
-0.73050952,-0.400366157,-0.553229511,-0.121981204,-0.157798976,-0.048975468,3.028972387,-1.411673903,1.030746222,0.411916376,-0.922626837,-0.182266429
-0.781902373,-0.411909401,-0.467931062,-0.116822481,-0.380508661,-0.240810871,1.027834535,-1.782013655,1.146740317,0.424548483,-1.031515821,-0.071717695
-0.781902373,-0.411909401,-0.467931062,-0.116822481,-0.380508661,-0.240810871,1.027834535,-1.782013655,1.146740317,0.424548483,-1.031515821,-0.071717695
-0.781902373,-0.411909401,-0.467931062,-0.116822481,-0.380508661,-0.240810871,1.027834535,-1.782013655,1.146740317,0.424548483,-1.031515821,-0.071717695
-0.781902373,-0.411909401,-0.467931062,-0.116822481,-0.380508661,-0.240810871,1.027834535,-1.782013655,1.146740317,0.424548483,-1.031515821,-0.071717695
-0.781902373,-0.411909401,-0.467931062,-0.116822481,-0.380508661,-0.240810871,1.027834535,-1.782013655,1.146740317,0.424548483,-1.031515821,-0.071717695
-0.781902373,-0.411909401,-0.467931062,-0.116822481,-0.380508661,-0.240810871,1.027834535,-1.782013655,1.146740317,0.424548483,-1.031515821,-0.071717695
-0.781902373,-0.411909401,-0.467931062,-0.116822481,-0.380508661,-0.240810871,1.027834535,-1.782013655,1.146740317,0.424548483,-1.031515821,-0.071717695
-0.781902373,-0.411909401,-0.467931062,-0.116822481,-0.380508661,-0.240810871,1.027834535,-1.782013655,1.146740317,0.424548483,-1.031515821,-0.071717695
-0.781902373,-0.411909401,-0.467931062,-0.116822481,-0.380508661,-0.240810871,1.027834535,-1.782013655,1.146740317,0.424548483,-1.031515821,-0.071717695
-0.832100511,-0.384590358,-0.399623543,-0.086765528,-0.210119575,-0.214941561,0.403639495,-2.117345333,0.720931411,0.394764016,-1.12306608,-0.036304828
-0.832100511,-0.384590358,-0.399623543,-0.086765528,-0.210119575,-0.214941561,0.403639495,-2.117345333,0.720931411,0.394764016,-1.12306608,-0.036304828
-0.832100511,-0.384590358,-0.399623543,-0.086765528,-0.210119575,-0.214941561,0.403639495,-2.117345333,0.720931411,0.394764016,-1.12306608,-0.036304828
-0.832100511,-0.384590358,-0.399623543,-0.086765528,-0.210119575,-0.214941561,0.403639495,-2.117345333,0.720931411,0.394764016,-1.12306608,-0.036304828
-0.832100511,-0.384590358,-0.399623543,-0.086765528,-0.210119575,-0.214941561,0.403639495,-2.117345333,0.720931411,0.394764016,-1.12306608,-0.036304828
-0.832100511,-0.384590358,-0.399623543,-0.086765528,-0.210119575,-0.214941561,0.403639495,-2.117345333,0.720931411,0.394764016,-1.12306608,-0.036304828
-0.832100511,-0.384590358,-0.399623543,-0.086765528,-0.210119575,-0.214941561,0.403639495,-2.117345333,0.720931411,0.394764016,-1.12306608,-0.036304828
-0.832100511,-0.384590358,-0.399623543,-0.086765528,-0.210119575,-0.214941561,0.403639495,-2.117345333,0.720931411,0.394764016,-1.12306608,-0.036304828
-0.832100511,-0.384590358,-0.399623543,-0.086765528,-0.210119575,-0.214941561,0.403639495,-2.117345333,0.720931411,0.394764016,-1.12306608,-0.036304828
-0.832100511,-0.384590358,-0.399623543,-0.086765528,-0.210119575,-0.214941561,0.403639495,-2.117345333,0.720931411,0.394764016,-1.12306608,-0.036304828
-0.832100511,-0.384590358,-0.399623543,-0.086765528,-0.210119575,-0.214941561,0.403639495,-2.117345333,0.720931411,0.394764016,-1.12306608,-0.036304828
-0.832100511,-0.384590358,-0.399623543,-0.086765528,-0.210119575,-0.214941561,0.403639495,-2.117345333,0.720931411,0.394764016,-1.12306608,-0.036304828
-0.866826594,-0.384537131,-0.317400396,-0.117850542,-0.086363018,0.01274097,0.900710523,-1.73120141,0.202659473,0.394706331,-1.219794993,0.007553814
-0.866826594,-0.384537131,-0.317400396,-0.117850542,-0.086363018,0.01274097,0.900710523,-1.73120141,0.202659473,0.394706331,-1.219794993,0.007553814
-0.866826594,-0.384537131,-0.317400396,-0.117850542,-0.086363018,0.01274097,0.900710523,-1.73120141,0.202659473,0.394706331,-1.219794993,0.007553814
-0.866826594,-0.384537131,-0.317400396,-0.117850542,-0.086363018,0.01274097,0.900710523,-1.73120141,0.202659473,0.394706331,-1.219794993,0.007553814
-0.866826594,-0.384537131,-0.317400396,-0.117850542,-0.086363018,0.01274097,0.900710523,-1.73120141,0.202659473,0.394706331,-1.219794993,0.007553814
-0.866826594,-0.384537131,-0.317400396,-0.117850542,-0.086363018,0.01274097,0.900710523,-1.73120141,0.202659473,0.394706331,-1.219794993,0.007553814
-0.883753717,-0.387815475,-0.261875689,-0.180376291,0.040038317,-0.224164724,1.241317868,-0.731729865,-0.027563877,0.398260412,-1.282717251,0.032793159
-0.883753717,-0.387815475,-0.261875689,-0.180376291,0.040038317,-0.224164724,1.241317868,-0.731729865,-0.027563877,0.398260412,-1.282717251,0.032793159
-0.883753717,-0.387815475,-0.261875689,-0.180376291,0.040038317,-0.224164724,1.241317868,-0.731729865,-0.027563877,0.398260412,-1.282717251,0.032793159
-0.883753717,-0.387815475,-0.261875689,-0.180376291,0.040038317,-0.224164724,1.241317868,-0.731729865,-0.027563877,0.398260412,-1.282717251,0.032793159
-0.883753717,-0.387815475,-0.261875689,-0.180376291,0.040038317,-0.224164724,1.241317868,-0.731729865,-0.027563877,0.398260412,-1.282717251,0.032793159
-0.883753717,-0.387815475,-0.261875689,-0.180376291,0.040038317,-0.224164724,1.241317868,-0.731729865,-0.027563877,0.398260412,-1.282717251,0.032793159
-0.881647408,-0.398407102,-0.252922922,0.03248316,0.038438201,0.110601902,-0.364507169,-0.106049396,0.041042883,0.409779512,-1.291423547,0.080682387
-0.881647408,-0.398407102,-0.252922922,0.03248316,0.038438201,0.110601902,-0.364507169,-0.106049396,0.041042883,0.409779512,-1.291423547,0.080682387
-0.881647408,-0.398407102,-0.252922922,0.03248316,0.038438201,0.110601902,-0.364507169,-0.106049396,0.041042883,0.409779512,-1.291423547,0.080682387
-0.881647408,-0.398407102,-0.252922922,0.03248316,0.038438201,0.110601902,-0.364507169,-0.106049396,0.041042883,0.409779512,-1.291423547,0.080682387
-0.881647408,-0.398407102,-0.252922922,0.03248316,0.038438201,0.110601902,-0.364507169,-0.106049396,0.041042883,0.409779512,-1.291423547,0.080682387
-0.881647408,-0.398407102,-0.252922922,0.03248316,0.038438201,0.110601902,-0.364507169,-0.106049396,0.041042883,0.409779512,-1.291423547,0.080682387
-0.881647408,-0.398407102,-0.252922922,0.03248316,0.038438201,0.110601902,-0.364507169,-0.106049396,0.041042883,0.409779512,-1.291423547,0.080682387
-0.881647408,-0.398407102,-0.252922922,0.03248316,0.038438201,0.110601902,-0.364507169,-0.106049396,0.041042883,0.409779512,-1.291423547,0.080682387
-0.881647408,-0.398407102,-0.252922922,0.03248316,0.038438201,0.110601902,-0.364507169,-0.106049396,0.041042883,0.409779512,-1.291423547,0.080682387
-0.883080304,-0.38951087,-0.261630744,-0.02159518,-0.037550867,0.15149045,-0.569752753,0.022569999,0.046583638,0.400100446,-1.282764478,0.053811686
-0.883080304,-0.38951087,-0.261630744,-0.02159518,-0.037550867,0.15149045,-0.569752753,0.022569999,0.046583638,0.400100446,-1.282764478,0.053811686
-0.883080304,-0.38951087,-0.261630744,-0.02159518,-0.037550867,0.15149045,-0.569752753,0.022569999,0.046583638,0.400100446,-1.282764478,0.053811686
-0.883080304,-0.38951087,-0.261630744,-0.02159518,-0.037550867,0.15149045,-0.569752753,0.022569999,0.046583638,0.400100446,-1.282764478,0.053811686
-0.883080304,-0.38951087,-0.261630744,-0.02159518,-0.037550867,0.15149045,-0.569752753,0.022569999,0.046583638,0.400100446,-1.282764478,0.053811686
-0.883080304,-0.38951087,-0.261630744,-0.02159518,-0.037550867,0.15149045,-0.569752753,0.022569999,0.046583638,0.400100446,-1.282764478,0.053811686
-0.883080304,-0.38951087,-0.261630744,-0.02159518,-0.037550867,0.15149045,-0.569752753,0.022569999,0.046583638,0.400100446,-1.282764478,0.053811686
-0.883080304,-0.38951087,-0.261630744,-0.02159518,-0.037550867,0.15149045,-0.569752753,0.022569999,0.046583638,0.400100446,-1.282764478,0.053811686
-0.883080304,-0.38951087,-0.261630744,-0.02159518,-0.037550867,0.15149045,-0.569752753,0.022569999,0.046583638,0.400100446,-1.282764478,0.053811686
-0.882870853,-0.389261603,-0.26270619,0.010452449,0.087093055,0.082451761,0.22867085,0.002630549,-0.05868201,0.399829827,-1.281580464,0.050137577
-0.882870853,-0.389261603,-0.26270619,0.010452449,0.087093055,0.082451761,0.22867085,0.002630549,-0.05868201,0.399829827,-1.281580464,0.050137577
-0.882870853,-0.389261603,-0.26270619,0.010452449,0.087093055,0.082451761,0.22867085,0.002630549,-0.05868201,0.399829827,-1.281580464,0.050137577
-0.882870853,-0.389261603,-0.26270619,0.010452449,0.087093055,0.082451761,0.22867085,0.002630549,-0.05868201,0.399829827,-1.281580464,0.050137577
-0.882870853,-0.389261603,-0.26270619,0.010452449,0.087093055,0.082451761,0.22867085,0.002630549,-0.05868201,0.399829827,-1.281580464,0.050137577
-0.882870853,-0.389261603,-0.26270619,0.010452449,0.087093055,0.082451761,0.22867085,0.002630549,-0.05868201,0.399829827,-1.281580464,0.050137577
-0.88393575,-0.390419483,-0.257352591,-0.032519698,-0.078100473,0.002635419,-0.335413307,0.0699028,0.020910554,0.401087196,-1.28748396,0.05052746
-0.88393575,-0.390419483,-0.257352591,-0.032519698,-0.078100473,0.002635419,-0.335413307,0.0699028,0.020910554,0.401087196,-1.28748396,0.05052746
-0.88393575,-0.390419483,-0.257352591,-0.032519698,-0.078100473,0.002635419,-0.335413307,0.0699028,0.020910554,0.401087196,-1.28748396,0.05052746
-0.892113566,-0.377828121,-0.247748449,-0.004978657,0.08907187,-0.055354238,0.015514853,0.09286195,-0.046807665,0.387449413,-1.299912827,0.050260539
-0.892113566,-0.377828121,-0.247748449,-0.004978657,0.08907187,-0.055354238,0.015514853,0.09286195,-0.046807665,0.387449413,-1.299912827,0.050260539
-0.892113566,-0.377828121,-0.247748449,-0.004978657,0.08907187,-0.055354238,0.015514853,0.09286195,-0.046807665,0.387449413,-1.299912827,0.050260539
-0.892113566,-0.377828121,-0.247748449,-0.004978657,0.08907187,-0.055354238,0.015514853,0.09286195,-0.046807665,0.387449413,-1.299912827,0.050260539
-0.892113566,-0.377828121,-0.247748449,-0.004978657,0.08907187,-0.055354238,0.015514853,0.09286195,-0.046807665,0.387449413,-1.299912827,0.050260539
-0.892113566,-0.377828121,-0.247748449,-0.004978657,0.08907187,-0.055354238,0.015514853,0.09286195,-0.046807665,0.387449413,-1.299912827,0.050260539
-0.892113566,-0.377828121,-0.247748449,-0.004978657,0.08907187,-0.055354238,0.015514853,0.09286195,-0.046807665,0.387449413,-1.299912827,0.050260539
-0.892113566,-0.377828121,-0.247748449,-0.004978657,0.08907187,-0.055354238,0.015514853,0.09286195,-0.046807665,0.387449413,-1.299912827,0.050260539
-0.892113566,-0.377828121,-0.247748449,-0.004978657,0.08907187,-0.055354238,0.015514853,0.09286195,-0.046807665,0.387449413,-1.299912827,0.050260539
-0.890427887,-0.385199368,-0.242403939,0.002124488,0.070762485,0.000382304,0.073318392,0.02845986,-0.002733042,0.395423863,-1.305004305,0.057465382
-0.890427887,-0.385199368,-0.242403939,0.002124488,0.070762485,0.000382304,0.073318392,0.02845986,-0.002733042,0.395423863,-1.305004305,0.057465382
-0.890427887,-0.385199368,-0.242403939,0.002124488,0.070762485,0.000382304,0.073318392,0.02845986,-0.002733042,0.395423863,-1.305004305,0.057465382
-0.890427887,-0.385199368,-0.242403939,0.002124488,0.070762485,0.000382304,0.073318392,0.02845986,-0.002733042,0.395423863,-1.305004305,0.057465382
-0.890427887,-0.385199368,-0.242403939,0.002124488,0.070762485,0.000382304,0.073318392,0.02845986,-0.002733042,0.395423863,-1.305004305,0.057465382
-0.890427887,-0.385199368,-0.242403939,0.002124488,0.070762485,0.000382304,0.073318392,0.02845986,-0.002733042,0.395423863,-1.305004305,0.057465382
-0.890427887,-0.385199368,-0.242403939,0.002124488,0.070762485,0.000382304,0.073318392,0.02845986,-0.002733042,0.395423863,-1.305004305,0.057465382
-0.890427887,-0.385199368,-0.242403939,0.002124488,0.070762485,0.000382304,0.073318392,0.02845986,-0.002733042,0.395423863,-1.305004305,0.057465382
-0.890427887,-0.385199368,-0.242403939,0.002124488,0.070762485,0.000382304,0.073318392,0.02845986,-0.002733042,0.395423863,-1.305004305,0.057465382
-0.890427887,-0.385199368,-0.242403939,0.002124488,0.070762485,0.000382304,0.073318392,0.02845986,-0.002733042,0.395423863,-1.305004305,0.057465382
-0.890427887,-0.385199368,-0.242403939,0.002124488,0.070762485,0.000382304,0.073318392,0.02845986,-0.002733042,0.395423863,-1.305004305,0.057465382
-0.890427887,-0.385199368,-0.242403939,0.002124488,0.070762485,0.000382304,0.073318392,0.02845986,-0.002733042,0.395423863,-1.305004305,0.057465382
-0.890427887,-0.385199368,-0.242403939,0.002124488,0.070762485,0.000382304,0.073318392,0.02845986,-0.002733042,0.395423863,-1.305004305,0.057465382
-0.890427887,-0.385199368,-0.242403939,0.002124488,0.070762485,0.000382304,0.073318392,0.02845986,-0.002733042,0.395423863,-1.305004305,0.057465382
-0.890665889,-0.377971113,-0.252690077,-0.008776605,-0.066455513,0.009509027,-0.151009858,0.048359387,0.000133264,0.387603858,-1.294351427,0.049042142
-0.890665889,-0.377971113,-0.252690077,-0.008776605,-0.066455513,0.009509027,-0.151009858,0.048359387,0.000133264,0.387603858,-1.294351427,0.049042142
-0.890665889,-0.377971113,-0.252690077,-0.008776605,-0.066455513,0.009509027,-0.151009858,0.048359387,0.000133264,0.387603858,-1.294351427,0.049042142
-0.890665889,-0.377971113,-0.252690077,-0.008776605,-0.066455513,0.009509027,-0.151009858,0.048359387,0.000133264,0.387603858,-1.294351427,0.049042142
-0.890665889,-0.377971113,-0.252690077,-0.008776605,-0.066455513,0.009509027,-0.151009858,0.048359387,0.000133264,0.387603858,-1.294351427,0.049042142
-0.890665889,-0.377971113,-0.252690077,-0.008776605,-0.066455513,0.009509027,-0.151009858,0.048359387,0.000133264,0.387603858,-1.294351427,0.049042142
-0.890665889,-0.377971113,-0.252690077,-0.008776605,-0.066455513,0.009509027,-0.151009858,0.048359387,0.000133264,0.387603858,-1.294351427,0.049042142
-0.890665889,-0.377971113,-0.252690077,-0.008776605,-0.066455513,0.009509027,-0.151009858,0.048359387,0.000133264,0.387603858,-1.294351427,0.049042142
-0.890665889,-0.377971113,-0.252690077,-0.008776605,-0.066455513,0.009509027,-0.151009858,0.048359387,0.000133264,0.387603858,-1.294351427,0.049042142
-0.893244863,-0.369762421,-0.25571394,0.033764958,0.04523927,0.042577565,0.287672251,-0.019457018,-0.071112797,0.378753304,-1.291978087,0.050007769
-0.893244863,-0.369762421,-0.25571394,0.033764958,0.04523927,0.042577565,0.287672251,-0.019457018,-0.071112797,0.378753304,-1.291978087,0.050007769
-0.893244863,-0.369762421,-0.25571394,0.033764958,0.04523927,0.042577565,0.287672251,-0.019457018,-0.071112797,0.378753304,-1.291978087,0.050007769
-0.893244863,-0.369762421,-0.25571394,0.033764958,0.04523927,0.042577565,0.287672251,-0.019457018,-0.071112797,0.378753304,-1.291978087,0.050007769
-0.893244863,-0.369762421,-0.25571394,0.033764958,0.04523927,0.042577565,0.287672251,-0.019457018,-0.071112797,0.378753304,-1.291978087,0.050007769
-0.893244863,-0.369762421,-0.25571394,0.033764958,0.04523927,0.042577565,0.287672251,-0.019457018,-0.071112797,0.378753304,-1.291978087,0.050007769
-0.893244863,-0.369762421,-0.25571394,0.033764958,0.04523927,0.042577565,0.287672251,-0.019457018,-0.071112797,0.378753304,-1.291978087,0.050007769
-0.893244863,-0.369762421,-0.25571394,0.033764958,0.04523927,0.042577565,0.287672251,-0.019457018,-0.071112797,0.378753304,-1.291978087,0.050007769
-0.893244863,-0.369762421,-0.25571394,0.033764958,0.04523927,0.042577565,0.287672251,-0.019457018,-0.071112797,0.378753304,-1.291978087,0.050007769
-0.890739799,-0.38138622,-0.247239351,0.006235719,0.011834472,0.014739394,0.337445408,0.04038053,-0.056249425,0.391295389,-1.300045828,0.068070587
-0.890739799,-0.38138622,-0.247239351,0.006235719,0.011834472,0.014739394,0.337445408,0.04038053,-0.056249425,0.391295389,-1.300045828,0.068070587
-0.890739799,-0.38138622,-0.247239351,0.006235719,0.011834472,0.014739394,0.337445408,0.04038053,-0.056249425,0.391295389,-1.300045828,0.068070587
-0.890739799,-0.38138622,-0.247239351,0.006235719,0.011834472,0.014739394,0.337445408,0.04038053,-0.056249425,0.391295389,-1.300045828,0.068070587
-0.890739799,-0.38138622,-0.247239351,0.006235719,0.011834472,0.014739394,0.337445408,0.04038053,-0.056249425,0.391295389,-1.300045828,0.068070587
-0.890739799,-0.38138622,-0.247239351,0.006235719,0.011834472,0.014739394,0.337445408,0.04038053,-0.056249425,0.391295389,-1.300045828,0.068070587
-0.89171499,-0.378074169,-0.248805985,0.019250035,-0.13246876,0.095895886,-0.371127725,-0.1788349,-0.010453867,0.387715184,-1.298696951,0.056339168
-0.89171499,-0.378074169,-0.248805985,0.019250035,-0.13246876,0.095895886,-0.371127725,-0.1788349,-0.010453867,0.387715184,-1.298696951,0.056339168
-0.89171499,-0.378074169,-0.248805985,0.019250035,-0.13246876,0.095895886,-0.371127725,-0.1788349,-0.010453867,0.387715184,-1.298696951,0.056339168
-0.89171499,-0.378074169,-0.248805985,0.019250035,-0.13246876,0.095895886,-0.371127725,-0.1788349,-0.010453867,0.387715184,-1.298696951,0.056339168
-0.89171499,-0.378074169,-0.248805985,0.019250035,-0.13246876,0.095895886,-0.371127725,-0.1788349,-0.010453867,0.387715184,-1.298696951,0.056339168
-0.89171499,-0.378074169,-0.248805985,0.019250035,-0.13246876,0.095895886,-0.371127725,-0.1788349,-0.010453867,0.387715184,-1.298696951,0.056339168
-0.89171499,-0.378074169,-0.248805985,0.019250035,-0.13246876,0.095895886,-0.371127725,-0.1788349,-0.010453867,0.387715184,-1.298696951,0.056339168
-0.89171499,-0.378074169,-0.248805985,0.019250035,-0.13246876,0.095895886,-0.371127725,-0.1788349,-0.010453867,0.387715184,-1.298696951,0.056339168
-0.89171499,-0.378074169,-0.248805985,0.019250035,-0.13246876,0.095895886,-0.371127725,-0.1788349,-0.010453867,0.387715184,-1.298696951,0.056339168
-0.892941058,-0.377615482,-0.245077193,-0.109635413,-0.035454243,-0.047481537,0.317792207,0.198713109,-0.085601822,0.387219753,-1.302931615,0.056166009
-0.892941058,-0.377615482,-0.245077193,-0.109635413,-0.035454243,-0.047481537,0.317792207,0.198713109,-0.085601822,0.387219753,-1.302931615,0.056166009
-0.892941058,-0.377615482,-0.245077193,-0.109635413,-0.035454243,-0.047481537,0.317792207,0.198713109,-0.085601822,0.387219753,-1.302931615,0.056166009
-0.892941058,-0.377615482,-0.245077193,-0.109635413,-0.035454243,-0.047481537,0.317792207,0.198713109,-0.085601822,0.387219753,-1.302931615,0.056166009
-0.892941058,-0.377615482,-0.245077193,-0.109635413,-0.035454243,-0.047481537,0.317792207,0.198713109,-0.085601822,0.387219753,-1.302931615,0.056166009
-0.892941058,-0.377615482,-0.245077193,-0.109635413,-0.035454243,-0.047481537,0.317792207,0.198713109,-0.085601822,0.387219753,-1.302931615,0.056166009
-0.892941058,-0.377615482,-0.245077193,-0.109635413,-0.035454243,-0.047481537,0.317792207,0.198713109,-0.085601822,0.387219753,-1.302931615,0.056166009
-0.892941058,-0.377615482,-0.245077193,-0.109635413,-0.035454243,-0.047481537,0.317792207,0.198713109,-0.085601822,0.387219753,-1.302931615,0.056166009
-0.892941058,-0.377615482,-0.245077193,-0.109635413,-0.035454243,-0.047481537,0.317792207,0.198713109,-0.085601822,0.387219753,-1.302931615,0.056166009
-0.892941058,-0.377615482,-0.245077193,-0.109635413,-0.035454243,-0.047481537,0.317792207,0.198713109,-0.085601822,0.387219753,-1.302931615,0.056166009
-0.892941058,-0.377615482,-0.245077193,-0.109635413,-0.035454243,-0.047481537,0.317792207,0.198713109,-0.085601822,0.387219753,-1.302931615,0.056166009
-0.892941058,-0.377615482,-0.245077193,-0.109635413,-0.035454243,-0.047481537,0.317792207,0.198713109,-0.085601822,0.387219753,-1.302931615,0.056166009
-0.886882424,-0.391641349,-0.245064959,0.026350439,0.140482843,-0.066018224,0.223738834,0.036524586,-0.00844531,0.402414747,-1.301201664,0.075177012
-0.886882424,-0.391641349,-0.245064959,0.026350439,0.140482843,-0.066018224,0.223738834,0.036524586,-0.00844531,0.402414747,-1.301201664,0.075177012
-0.886882424,-0.391641349,-0.245064959,0.026350439,0.140482843,-0.066018224,0.223738834,0.036524586,-0.00844531,0.402414747,-1.301201664,0.075177012
-0.888301313,-0.388830304,-0.244401455,-0.063630819,-0.030434251,0.030043781,-0.251545191,-0.045116842,-0.002571655,0.399361664,-1.302305991,0.068252454
-0.888301313,-0.388830304,-0.244401455,-0.063630819,-0.030434251,0.030043781,-0.251545191,-0.045116842,-0.002571655,0.399361664,-1.302305991,0.068252454
-0.888301313,-0.388830304,-0.244401455,-0.063630819,-0.030434251,0.030043781,-0.251545191,-0.045116842,-0.002571655,0.399361664,-1.302305991,0.068252454
-0.888301313,-0.388830304,-0.244401455,-0.063630819,-0.030434251,0.030043781,-0.251545191,-0.045116842,-0.002571655,0.399361664,-1.302305991,0.068252454
-0.888301313,-0.388830304,-0.244401455,-0.063630819,-0.030434251,0.030043781,-0.251545191,-0.045116842,-0.002571655,0.399361664,-1.302305991,0.068252454
-0.888301313,-0.388830304,-0.244401455,-0.063630819,-0.030434251,0.030043781,-0.251545191,-0.045116842,-0.002571655,0.399361664,-1.302305991,0.068252454
-0.888301313,-0.388830304,-0.244401455,-0.063630819,-0.030434251,0.030043781,-0.251545191,-0.045116842,-0.002571655,0.399361664,-1.302305991,0.068252454
-0.888301313,-0.388830304,-0.244401455,-0.063630819,-0.030434251,0.030043781,-0.251545191,-0.045116842,-0.002571655,0.399361664,-1.302305991,0.068252454
-0.888301313,-0.388830304,-0.244401455,-0.063630819,-0.030434251,0.030043781,-0.251545191,-0.045116842,-0.002571655,0.399361664,-1.302305991,0.068252454
-0.888301313,-0.388830304,-0.244401455,-0.063630819,-0.030434251,0.030043781,-0.251545191,-0.045116842,-0.002571655,0.399361664,-1.302305991,0.068252454
-0.888301313,-0.388830304,-0.244401455,-0.063630819,-0.030434251,0.030043781,-0.251545191,-0.045116842,-0.002571655,0.399361664,-1.302305991,0.068252454